4/12/2023 4:44:02 pm
Time(s)	Displacement(mm)	Force(N)
0.0000	-266.9620	1.1273
0.1215	-267.3430	1.1408
0.2214	-268.0290	1.1425
0.3227	-268.7120	1.1412
0.4235	-269.3620	1.1430
0.5239	-270.0480	1.1430
0.6241	-270.7320	1.1421
0.7236	-271.3810	1.1381
0.8244	-272.0310	1.1399
0.9250	-272.7170	1.1470
1.0251	-273.3660	1.1468
1.1248	-274.0500	1.1463
1.2250	-274.6990	1.1467
1.3256	-275.3850	1.1539
1.4261	-276.0680	1.1586
1.5261	-276.7180	1.1609
1.6264	-277.4020	1.1596
1.7269	-278.0510	1.1618
1.8269	-278.7350	1.1678
1.9268	-279.4180	1.1674
2.0281	-280.0670	1.1693
2.1279	-280.7170	1.1771
2.2275	-281.4030	1.1849
2.3293	-282.0870	1.1839
2.4287	-282.7360	1.1834
2.5290	-283.4200	1.1855
2.6287	-284.0690	1.1933
2.7285	-284.7530	1.1959
2.8302	-285.4020	1.1980
2.9299	-286.0860	1.2017
3.0294	-286.7350	1.2075
3.1298	-287.4210	1.2153
3.2312	-288.1050	1.2144
3.3307	-288.7540	1.2209
3.4303	-289.4380	1.2236
3.5309	-290.0870	1.2332
3.6306	-290.7710	1.2322
3.7303	-291.4200	1.2363
3.8306	-292.0690	1.2414
3.9306	-292.7560	1.2500
4.0319	-293.4390	1.2506
4.1319	-294.0890	1.2539
4.2314	-294.7720	1.2585
4.3313	-295.4220	1.2585
4.4318	-296.1050	1.2599
4.5315	-296.7550	1.2600
4.6324	-297.4380	1.2579
4.7338	-298.1220	1.2495
4.8350	-298.7710	1.2441
4.9358	-299.4550	1.2327
5.0358	-300.1390	1.2240
5.1372	-300.7880	1.2050
5.2371	-301.4720	1.1820
5.3368	-302.1210	1.1513
5.4371	-302.8050	1.1147
5.5382	-303.4540	1.0650
5.6378	-304.1370	1.0104
5.7390	-304.8210	0.9440
5.8401	-305.4710	0.8606
5.9412	-306.1540	0.7602
6.0421	-306.8370	0.6366
6.1430	-307.4870	0.4883
6.2430	-308.1730	0.3156
6.3429	-308.8220	0.1060
6.4428	-309.5060	-0.1398
6.5442	-310.1900	-0.4289
6.6451	-310.8730	-0.7725
6.7461	-311.5230	-1.1748
6.8462	-312.1720	-1.6447
6.9462	-312.8560	-2.1938
7.0456	-313.5050	-2.8299
7.1458	-314.1910	-3.5562
7.2460	-314.8400	-4.3786
7.3463	-315.5260	-5.2850
7.4463	-316.1760	-6.3408
7.5466	-316.7840	-7.2165
7.6473	-316.8010	-7.1683
7.7474	-316.8010	-7.1097
7.8477	-316.8010	-7.0730
7.9479	-316.8010	-7.0461
8.0485	-316.8010	-7.0249
8.1503	-316.8000	-7.0068
8.2500	-316.8000	-6.9938
8.3496	-316.8000	-6.9827
8.4497	-316.8000	-6.9699
8.5496	-316.8000	-6.9642
8.6497	-316.8000	-6.9560
8.7508	-316.8000	-6.9462
8.8522	-316.8000	-6.9386
8.9526	-316.8000	-6.9310
9.0534	-316.8000	-6.9281
9.1540	-316.8000	-6.9211
9.2544	-316.8000	-6.9141
9.3551	-316.8000	-6.9104
9.4550	-316.8000	-6.9063
9.5554	-316.8000	-6.9026
9.6566	-316.8000	-6.9020
9.7571	-316.8000	-6.8945
9.8578	-316.8000	-6.8934
9.9589	-316.8000	-6.8878
10.0595	-316.8000	-6.8826
10.1598	-316.8000	-6.8827
10.2597	-316.8000	-6.8785
10.3597	-316.8000	-6.8722
10.4597	-316.8000	-6.8697
10.5602	-316.8000	-6.8681
10.6598	-316.8000	-6.8636
10.7596	-316.8000	-6.8614
10.8597	-316.8000	-6.8548
10.9594	-316.8000	-6.8572
11.0596	-316.8000	-6.8530
11.1596	-316.8000	-6.8497
11.2610	-316.8000	-6.8485
11.3606	-316.8000	-6.8492
11.4608	-316.8000	-6.8450
11.5608	-316.8000	-6.8407
11.6609	-316.8000	-6.8415
11.7605	-316.8000	-6.8367
11.8609	-316.8000	-6.8336
11.9610	-316.8000	-6.8308
12.0617	-316.8000	-6.8285
12.1619	-316.8000	-6.8253
12.2617	-316.8000	-6.8260
12.3627	-316.8000	-6.8274
12.4628	-316.8000	-6.8217
12.5633	-316.8000	-6.8179
12.6627	-316.8000	-6.8200
12.7639	-316.8000	-6.8161
12.8645	-316.8000	-6.8208
12.9649	-316.8000	-6.8197
13.0656	-316.8000	-6.8099
13.1663	-316.8000	-6.8105
13.2661	-316.8000	-6.8103
13.3667	-316.8000	-6.8081
13.4669	-316.8000	-6.8048
13.5666	-316.8000	-6.8056
13.6669	-316.8000	-6.8026
13.7675	-316.8000	-6.8029
13.8689	-316.8000	-6.8028
13.9700	-316.8000	-6.7991
14.0713	-316.8000	-6.7985
14.1720	-316.8000	-6.7968
14.2717	-316.8000	-6.7975
14.3719	-316.8000	-6.7957
14.4715	-316.8000	-6.7936
14.5741	-316.8000	-6.7883
14.6751	-316.8000	-6.7891
14.7746	-316.8000	-6.7893
14.8765	-316.8000	-6.7889
14.9773	-316.8000	-6.7918
15.0768	-316.8000	-6.7860
15.1765	-316.8000	-6.7869
15.2770	-316.8000	-6.7858
15.3771	-316.8000	-6.7880
15.4771	-316.8000	-6.7815
15.5771	-316.8000	-6.7795
15.6768	-316.8000	-6.7797
15.7767	-316.8000	-6.7787
15.8767	-316.8000	-6.7791
15.9769	-316.8000	-6.7804
16.0774	-316.8000	-6.7741
16.1781	-316.8000	-6.7693
16.2778	-316.8000	-6.7718
16.3784	-316.8000	-6.7711
16.4781	-316.8000	-6.7714
16.5776	-316.8000	-6.7678
16.6786	-316.8000	-6.7701
16.7790	-316.8000	-6.7716
16.8786	-316.8000	-6.7675
16.9791	-316.8000	-6.7655
17.0789	-316.8000	-6.7695
17.1792	-316.8000	-6.7652
17.2786	-316.8000	-6.7615
17.3792	-316.8000	-6.7625
17.4792	-316.8000	-6.7598
17.5790	-316.8000	-6.7611
17.6798	-316.8000	-6.7593
17.7798	-316.8000	-6.7592
17.8798	-316.8000	-6.7598
17.9797	-316.8000	-6.7575
18.0805	-316.8000	-6.7549
18.1811	-316.8000	-6.7591
18.2820	-316.8000	-6.7571
18.3826	-316.8000	-6.7544
18.4825	-316.8000	-6.7538
18.5833	-316.8000	-6.7542
18.6828	-316.8000	-6.7530
18.7825	-316.8000	-6.7478
18.8833	-316.8000	-6.7476
18.9826	-316.8000	-6.7473
19.0828	-316.8000	-6.7452
19.1827	-316.8000	-6.7439
19.2829	-316.8000	-6.7452
19.3833	-316.8000	-6.7488
19.4825	-316.8000	-6.7441
19.5827	-316.8000	-6.7459
19.6829	-316.8000	-6.7449
19.7842	-316.8000	-6.7458
19.8840	-316.8000	-6.7415
19.9851	-316.8000	-6.7412
20.0851	-316.8000	-6.7384
20.1863	-316.8000	-6.7375
20.2868	-316.8000	-6.7392
20.3873	-316.8000	-6.7376
20.4865	-316.8000	-6.7393
20.5867	-316.8000	-6.7361
20.6873	-316.8000	-6.7347
20.7871	-316.8000	-6.7314
20.8879	-316.8000	-6.7334
20.9891	-316.8000	-6.7321
21.0899	-316.8000	-6.7302
21.1897	-316.8000	-6.7296
21.2898	-316.8000	-6.7318
21.3909	-316.8000	-6.7287
21.4912	-316.8000	-6.7273
21.5905	-316.8000	-6.7288
21.6912	-316.8000	-6.7289
21.7923	-316.8000	-6.7283
21.8920	-316.8000	-6.7274
21.9932	-316.8000	-6.7258
22.0938	-316.8000	-6.7274
22.1949	-316.8000	-6.7246
22.2963	-316.8000	-6.7241
22.3960	-316.8000	-6.7252
22.4963	-316.8000	-6.7240
22.5955	-316.8000	-6.7228
22.6957	-316.8000	-6.7213
22.7967	-316.8000	-6.7196
22.8971	-316.8000	-6.7227
22.9969	-316.8000	-6.7220
23.0968	-316.8000	-6.7179
23.1974	-316.8000	-6.7166
23.2974	-316.8000	-6.7168
23.3971	-316.8000	-6.7185
23.4983	-316.8000	-6.7150
23.5975	-316.8000	-6.7168
23.6982	-316.8000	-6.7169
23.7978	-316.8000	-6.7130
23.8975	-316.8000	-6.7151
23.9975	-316.8000	-6.7117
24.0983	-316.8000	-6.7119
24.1980	-316.8000	-6.7117
24.2977	-316.8000	-6.7126
24.3986	-316.8000	-6.7136
24.4993	-316.8000	-6.7085
24.5990	-316.8000	-6.7110
24.6993	-316.8000	-6.7069
24.7987	-316.8000	-6.7101
24.8990	-316.8000	-6.7101
24.9988	-316.8000	-6.7092
25.0990	-316.8000	-6.7100
25.1989	-316.8000	-6.7086
25.2989	-316.8000	-6.7084
25.3990	-316.8000	-6.7063
25.4993	-316.8000	-6.7061
25.5985	-316.8000	-6.7067
25.6992	-316.8000	-6.7033
25.7987	-316.8000	-6.7035
25.8993	-316.8000	-6.7035
25.9995	-316.8000	-6.7012
26.0998	-316.8000	-6.7020
26.1998	-316.8000	-6.6992
26.2999	-316.8000	-6.7016
26.3996	-316.8000	-6.6996
26.4999	-316.8000	-6.6990
26.5998	-316.8000	-6.7019
26.6996	-316.8000	-6.7008
26.8005	-316.8000	-6.7000
26.8998	-316.8000	-6.6995
26.9999	-316.8000	-6.7001
27.1010	-316.8000	-6.6995
27.2013	-316.8000	-6.6983
27.3008	-316.8000	-6.6979
27.4009	-316.8000	-6.6964
27.5011	-316.8000	-6.6978
27.6007	-316.8000	-6.6948
27.7012	-316.8000	-6.6977
27.8018	-316.8000	-6.6944
27.9018	-316.8000	-6.6936
28.0019	-316.8000	-6.6923
28.1018	-316.8000	-6.6920
28.2018	-316.8000	-6.6920
28.3017	-316.8000	-6.6904
28.4022	-316.8000	-6.6880
28.5018	-316.8000	-6.6884
28.6019	-316.8000	-6.6881
28.7022	-316.8000	-6.6835
28.8015	-316.8000	-6.6909
28.9031	-316.8000	-6.6855
29.0042	-316.8000	-6.6878
29.1039	-316.8000	-6.6891
29.2043	-316.8000	-6.6889
29.3043	-316.8000	-6.6916
29.4040	-316.8000	-6.6872
29.5037	-316.8000	-6.6895
29.6042	-316.8000	-6.6853
29.7046	-316.8000	-6.6877
29.8063	-316.8000	-6.6868
29.9061	-316.8000	-6.6828
30.0064	-316.8000	-6.6836
30.1060	-316.8000	-6.6844
30.2061	-316.8000	-6.6858
30.3073	-316.8000	-6.6852
30.4075	-316.8000	-6.6857
30.5066	-316.8000	-6.6800
30.6066	-316.8000	-6.6829
30.7068	-316.8000	-6.6817
30.8079	-316.8000	-6.6803
30.9087	-316.8000	-6.6795
31.0095	-316.8000	-6.6789
31.1092	-316.8000	-6.6790
31.2093	-316.8000	-6.6753
31.3086	-316.8000	-6.6755
31.4090	-316.8000	-6.6773
31.5092	-316.8000	-6.6762
31.6094	-316.8000	-6.6740
31.7094	-316.8000	-6.6763
31.8093	-316.8000	-6.6783
31.9095	-316.8000	-6.6718
32.0113	-316.8000	-6.6744
32.1108	-316.8000	-6.6753
32.2123	-316.8000	-6.6738
32.3123	-316.8000	-6.6727
32.4120	-316.8000	-6.6727
32.5121	-316.8000	-6.6698
32.6121	-316.8000	-6.6711
32.7123	-316.8000	-6.6728
32.8118	-316.8000	-6.6713
32.9120	-316.8000	-6.6713
33.0122	-316.8000	-6.6699
33.1130	-316.8000	-6.6708
33.2140	-316.8000	-6.6719
33.3137	-316.8000	-6.6713
33.4147	-316.8000	-6.6715
33.5167	-316.8000	-6.6713
33.6183	-316.8000	-6.6684
33.7180	-316.8000	-6.6667
33.8189	-316.8000	-6.6711
33.9186	-316.8000	-6.6690
34.0199	-316.8000	-6.6675
34.1203	-316.8000	-6.6653
34.2207	-316.8000	-6.6667
34.3206	-316.8000	-6.6632
34.4215	-316.8000	-6.6627
34.5210	-316.8000	-6.6612
34.6207	-316.8000	-6.6674
34.7214	-316.8000	-6.6654
34.8211	-316.8000	-6.6644
34.9213	-316.8000	-6.6644
35.0210	-316.8000	-6.6631
35.1207	-316.8000	-6.6635
35.2214	-316.8000	-6.6625
35.3210	-316.8000	-6.6595
35.4208	-316.8000	-6.6613
35.5214	-316.8000	-6.6630
35.6212	-316.8000	-6.6610
35.7213	-316.8000	-6.6632
35.8211	-316.8000	-6.6625
35.9213	-316.8000	-6.6642
36.0211	-316.8000	-6.6589
36.1220	-316.8000	-6.6596
36.2224	-316.8000	-6.6584
36.3219	-316.8000	-6.6616
36.4216	-316.8000	-6.6602
36.5223	-316.8000	-6.6557
36.6222	-316.8000	-6.6594
36.7223	-316.8000	-6.6592
36.8220	-316.8000	-6.6566
36.9223	-316.8000	-6.6571
37.0223	-316.8000	-6.6540
37.1221	-316.8000	-6.6544
37.2223	-316.8000	-6.6516
37.3223	-316.8000	-6.6544
37.4224	-316.8000	-6.6552
37.5223	-316.8000	-6.6532
37.6221	-316.8000	-6.6521
37.7223	-316.8000	-6.6526
37.8220	-316.8000	-6.6537
37.9218	-316.8000	-6.6522
38.0218	-316.8000	-6.6540
38.1224	-316.8000	-6.6537
38.2223	-316.8000	-6.6520
38.3218	-316.8000	-6.6514
38.4221	-316.8000	-6.6498
38.5216	-316.8000	-6.6510
38.6223	-316.8000	-6.6486
38.7231	-316.8000	-6.6468
38.8228	-316.8000	-6.6487
38.9240	-316.8000	-6.6473
39.0246	-316.8000	-6.6484
39.1248	-316.8000	-6.6438
39.2248	-316.8000	-6.6471
39.3251	-316.8000	-6.6470
39.4250	-316.8000	-6.6449
39.5251	-316.8000	-6.6450
39.6250	-316.8000	-6.6436
39.7252	-316.8000	-6.6434
39.8250	-316.8000	-6.6447
39.9252	-316.8000	-6.6394
40.0250	-316.8000	-6.6434
40.1247	-316.8000	-6.6440
40.2251	-316.8000	-6.6423
40.3258	-316.8000	-6.6435
40.4260	-316.8000	-6.6447
40.5261	-316.8000	-6.6418
40.6262	-316.8000	-6.6435
40.7276	-316.8000	-6.6416
40.8271	-316.8000	-6.6437
40.9275	-316.8000	-6.6424
41.0272	-316.8000	-6.6400
41.1279	-316.8000	-6.6402
41.2278	-316.8000	-6.6413
41.3283	-316.8000	-6.6380
41.4278	-316.8000	-6.6401
41.5292	-316.8000	-6.6382
41.6289	-316.8000	-6.6412
41.7297	-316.8000	-6.6397
41.8297	-316.8000	-6.6388
41.9298	-316.8000	-6.6374
42.0299	-316.8000	-6.6363
42.1299	-316.8000	-6.6368
42.2297	-316.8000	-6.6348
42.3299	-316.8000	-6.6366
42.4300	-316.8000	-6.6396
42.5300	-316.8000	-6.6352
42.6297	-316.8000	-6.6368
42.7300	-316.8000	-6.6354
42.8297	-316.8000	-6.6376
42.9300	-316.8000	-6.6338
43.0306	-316.8000	-6.6376
43.1313	-316.8000	-6.6348
43.2307	-316.8000	-6.6350
43.3319	-316.8000	-6.6333
43.4320	-316.8000	-6.6345
43.5324	-316.8000	-6.6312
43.6332	-316.8000	-6.6339
43.7334	-316.8000	-6.6344
43.8335	-316.8000	-6.6316
43.9331	-316.8000	-6.6299
44.0332	-316.8000	-6.6314
44.1329	-316.8000	-6.6326
44.2334	-316.8000	-6.6327
44.3333	-316.8000	-6.6312
44.4341	-316.8000	-6.6314
44.5342	-316.8000	-6.6309
44.6354	-316.8000	-6.6310
44.7350	-316.8000	-6.6270
44.8352	-316.8000	-6.6296
44.9355	-316.8000	-6.6289
45.0357	-316.8000	-6.6300
45.1358	-316.8000	-6.6280
45.2374	-316.8000	-6.6294
45.3371	-316.8000	-6.6268
45.4368	-316.8000	-6.6267
45.5370	-316.8000	-6.6275
45.6373	-316.8000	-6.6284
45.7375	-316.8000	-6.6290
45.8381	-316.8000	-6.6287
45.9386	-316.8000	-6.6290
46.0386	-316.8000	-6.6311
46.1379	-316.8000	-6.6276
46.2381	-316.8000	-6.6280
46.3385	-316.8000	-6.6271
46.4380	-316.8000	-6.6242
46.5382	-316.8000	-6.6275
46.6387	-316.8000	-6.6270
46.7385	-316.8000	-6.6258
46.8381	-316.8000	-6.6253
46.9395	-316.8000	-6.6269
47.0389	-316.8000	-6.6241
47.1395	-316.8000	-6.6238
47.2400	-316.8000	-6.6209
47.3399	-316.8000	-6.6227
47.4404	-316.8000	-6.6212
47.5400	-316.8000	-6.6204
47.6401	-316.8000	-6.6202
47.7403	-316.8000	-6.6211
47.8401	-316.8000	-6.6206
47.9400	-316.8000	-6.6219
48.0412	-316.8000	-6.6227
48.1408	-316.8000	-6.6205
48.2414	-316.8000	-6.6204
48.3412	-316.8000	-6.6205
48.4410	-316.8000	-6.6215
48.5408	-316.8000	-6.6217
48.6408	-316.8000	-6.6185
48.7413	-316.8000	-6.6209
48.8422	-316.8000	-6.6194
48.9424	-316.8000	-6.6206
49.0424	-316.8000	-6.6182
49.1419	-316.8000	-6.6185
49.2431	-316.8000	-6.6194
49.3428	-316.8000	-6.6186
49.4428	-316.8000	-6.6169
49.5439	-316.8000	-6.6189
49.6446	-316.8000	-6.6164
49.7446	-316.8000	-6.6128
49.8438	-316.8000	-6.6146
49.9449	-316.8000	-6.6148
50.0449	-316.8000	-6.6159
50.1451	-316.8000	-6.6144
50.2453	-316.8000	-6.6141
50.3451	-316.8000	-6.6121
50.4457	-316.8000	-6.6134
50.5448	-316.8000	-6.6145
50.6448	-316.8000	-6.6130
50.7450	-316.8000	-6.6148
50.8453	-316.8000	-6.6109
50.9450	-316.8000	-6.6142
51.0454	-316.8000	-6.6126
51.1458	-316.8000	-6.6128
51.2460	-316.8000	-6.6142
51.3466	-316.8000	-6.6109
51.4458	-316.8000	-6.6125
51.5465	-316.8000	-6.6128
51.6459	-316.8000	-6.6116
51.7462	-316.8000	-6.6082
51.8461	-316.8000	-6.6094
51.9470	-316.8000	-6.6119
52.0480	-316.8000	-6.6091
52.1483	-316.8000	-6.6119
52.2482	-316.8000	-6.6074
52.3484	-316.8000	-6.6067
52.4478	-316.8000	-6.6063
52.5484	-316.8000	-6.6067
52.6483	-316.8000	-6.6087
52.7480	-316.8000	-6.6074
52.8485	-316.8000	-6.6038
52.9478	-316.8000	-6.6058
53.0481	-316.8000	-6.6065
53.1479	-316.8000	-6.6051
53.2487	-316.8000	-6.6062
53.3487	-316.8000	-6.6054
53.4491	-316.8000	-6.6021
53.5500	-316.8000	-6.6032
53.6514	-316.8000	-6.6033
53.7526	-316.8000	-6.6054
53.8522	-316.8000	-6.6041
53.9521	-316.8000	-6.6049
54.0523	-316.8000	-6.6039
54.1518	-316.8000	-6.6019
54.2521	-316.8000	-6.6025
54.3525	-316.8000	-6.6018
54.4523	-316.8000	-6.6040
54.5536	-316.8000	-6.6015
54.6538	-316.8000	-6.6023
54.7543	-316.8000	-6.6019
54.8540	-316.8000	-6.6048
54.9543	-316.8000	-6.6012
55.0543	-316.8000	-6.6049
55.1538	-316.8000	-6.6028
55.2541	-316.8000	-6.6059
55.3546	-316.8000	-6.6033
55.4546	-316.8000	-6.6051
55.5547	-316.8000	-6.6035
55.6540	-316.8000	-6.6002
55.7547	-316.8000	-6.6003
55.8544	-316.8000	-6.6016
55.9538	-316.8000	-6.5992
56.0540	-316.8000	-6.6002
56.1552	-316.8000	-6.6017
56.2560	-316.8000	-6.6008
56.3561	-316.8000	-6.5999
56.4562	-316.8000	-6.6039
56.5564	-316.8000	-6.6020
56.6567	-316.8000	-6.5979
56.7563	-316.8000	-6.5994
56.8565	-316.8000	-6.6016
56.9565	-316.8000	-6.6045
57.0565	-316.8000	-6.5996
57.1566	-316.8000	-6.5954
57.2566	-316.8000	-6.5970
57.3561	-316.8000	-6.5994
57.4561	-316.8000	-6.5956
57.5567	-316.8000	-6.5957
57.6568	-316.8000	-6.5964
57.7576	-316.8000	-6.5954
57.8578	-316.8000	-6.5952
57.9582	-316.8000	-6.5963
58.0587	-316.8000	-6.5948
58.1597	-316.8000	-6.5938
58.2608	-316.8000	-6.5895
58.3601	-316.8000	-6.5948
58.4600	-316.8000	-6.5924
58.5602	-316.8000	-6.5936
58.6605	-316.8000	-6.5945
58.7610	-316.8000	-6.5906
58.8609	-316.8000	-6.5906
58.9622	-316.8000	-6.5886
59.0635	-316.8000	-6.5881
59.1641	-316.8000	-6.5965
59.2642	-316.8000	-6.5977
59.3644	-316.8000	-6.5944
59.4651	-316.8000	-6.5937
59.5653	-316.8000	-6.5924
59.6651	-316.8000	-6.5919
59.7654	-316.8000	-6.5913
59.8652	-316.8000	-6.5902
59.9651	-316.8000	-6.5919
60.0655	-316.8000	-6.5920
60.1654	-316.8000	-6.5895
60.2652	-316.8000	-6.5955
60.3657	-316.8000	-6.5925
60.4662	-316.8000	-6.5899
60.5677	-316.8000	-6.5929
60.6686	-316.8000	-6.5896
60.7683	-316.8000	-6.5905
60.8682	-316.8000	-6.5887
60.9692	-316.8000	-6.5867
61.0690	-316.8000	-6.5888
61.1690	-316.8000	-6.5877
61.2694	-316.8000	-6.5865
61.3694	-316.8000	-6.5904
61.4692	-316.8000	-6.5856
61.5690	-316.8000	-6.5812
61.6694	-316.8000	-6.5869
61.7697	-316.8000	-6.5876
61.8699	-316.8000	-6.5874
61.9702	-316.8000	-6.5867
62.0699	-316.8000	-6.5821
62.1713	-316.8000	-6.5802
62.2718	-316.8000	-6.5802
62.3723	-316.8000	-6.5816
62.4719	-316.8000	-6.5833
62.5722	-316.8000	-6.5853
62.6726	-316.8000	-6.5844
62.7726	-316.8000	-6.5815
62.8721	-316.8000	-6.5861
62.9735	-316.8000	-6.5851
63.0736	-316.8000	-6.5851
63.1734	-316.8000	-6.5801
63.2734	-316.8000	-6.5845
63.3738	-316.8000	-6.5824
63.4736	-316.8000	-6.5836
63.5731	-316.8000	-6.5841
63.6739	-316.8000	-6.5867
63.7743	-316.8000	-6.5838
63.8740	-316.8000	-6.5829
63.9740	-316.8000	-6.5822
64.0748	-316.8000	-6.5854
64.1746	-316.8000	-6.5831
64.2750	-316.8000	-6.5849
64.3756	-316.8000	-6.5864
64.4756	-316.8000	-6.5871
64.5754	-316.8000	-6.5832
64.6753	-316.8000	-6.5793
64.7749	-316.8000	-6.5800
64.8754	-316.8000	-6.5781
64.9762	-316.8000	-6.5817
65.0766	-316.8000	-6.5800
65.1767	-316.8000	-6.5791
65.2759	-316.8000	-6.5769
65.3763	-316.8000	-6.5773
65.4774	-316.8000	-6.5795
65.5777	-316.8000	-6.5744
65.6771	-316.8000	-6.5828
65.7779	-316.8000	-6.5787
65.8780	-316.8000	-6.5730
65.9781	-316.8000	-6.5786
66.0779	-316.8000	-6.5783
66.1797	-316.8000	-6.5776
66.2791	-316.8000	-6.5770
66.3792	-316.8000	-6.5774
66.4792	-316.8000	-6.5739
66.5789	-316.8000	-6.5773
66.6789	-316.8000	-6.5751
66.7791	-316.8000	-6.5772
66.8789	-316.8000	-6.5754
66.9796	-316.8000	-6.5748
67.0802	-316.8000	-6.5757
67.1804	-316.8000	-6.5777
67.2802	-316.8000	-6.5744
67.3802	-316.8000	-6.5780
67.4804	-316.8000	-6.5752
67.5802	-316.8000	-6.5720
67.6809	-316.8000	-6.5725
67.7810	-316.8000	-6.5754
67.8812	-316.8000	-6.5781
67.9811	-316.8000	-6.5745
68.0823	-316.8000	-6.5721
68.1822	-316.8000	-6.5722
68.2820	-316.8000	-6.5713
68.3824	-316.8000	-6.5746
68.4826	-316.8000	-6.5704
68.5822	-316.8000	-6.5725
68.6825	-316.8000	-6.5697
68.7822	-316.8000	-6.5746
68.8825	-316.8000	-6.5697
68.9822	-316.8000	-6.5772
69.0824	-316.8000	-6.5727
69.1827	-316.8000	-6.5725
69.2826	-316.8000	-6.5716
69.3824	-316.8000	-6.5670
69.4827	-316.8000	-6.5683
69.5826	-316.8000	-6.5714
69.6825	-316.8000	-6.5645
69.7830	-316.8000	-6.5716
69.8838	-316.8000	-6.5732
69.9844	-316.8000	-6.5713
70.0842	-316.8000	-6.5710
70.1840	-316.8000	-6.5692
70.2841	-316.8000	-6.5672
70.3850	-316.8000	-6.5700
70.4850	-316.8000	-6.5700
70.5850	-316.8000	-6.5678
70.6853	-316.8000	-6.5711
70.7850	-316.8000	-6.5683
70.8859	-316.8000	-6.5666
70.9858	-316.8000	-6.5707
71.0859	-316.8000	-6.5674
71.1866	-316.8000	-6.5665
71.2863	-316.8000	-6.5679
71.3871	-316.8000	-6.5699
71.4878	-316.8000	-6.5688
71.5876	-316.8000	-6.5694
71.6870	-316.8000	-6.5689
71.7870	-316.8000	-6.5671
71.8870	-316.8000	-6.5681
71.9878	-316.8000	-6.5651
72.0877	-316.8000	-6.5637
72.1891	-316.8000	-6.5655
72.2897	-316.8000	-6.5661
72.3894	-316.8000	-6.5667
72.4903	-316.8000	-6.5675
72.5903	-316.8000	-6.5664
72.6903	-316.8000	-6.5672
72.7901	-316.8000	-6.5636
72.8913	-316.8000	-6.5647
72.9912	-316.8000	-6.5665
73.0922	-316.8000	-6.5620
73.1919	-316.8000	-6.5607
73.2923	-316.8000	-6.5712
73.3933	-316.8000	-6.5690
73.4938	-316.8000	-6.5661
73.5936	-316.8000	-6.5671
73.6942	-316.8000	-6.5678
73.7943	-316.8000	-6.5636
73.8940	-316.8000	-6.5651
73.9940	-316.8000	-6.5634
74.0955	-316.8000	-6.5643
74.1957	-316.8000	-6.5633
74.2952	-316.8000	-6.5635
74.3950	-316.8000	-6.5637
74.4958	-316.8000	-6.5598
74.5958	-316.8000	-6.5605
74.6962	-316.8000	-6.5592
74.7960	-316.8000	-6.5616
74.8961	-316.8000	-6.5640
74.9967	-316.8000	-6.5591
75.0968	-316.8000	-6.5574
75.1970	-316.8000	-6.5578
75.2971	-316.8000	-6.5596
75.3977	-316.8000	-6.5575
75.4971	-316.8000	-6.5569
75.5979	-316.8000	-6.5583
75.6980	-316.8000	-6.5586
75.7981	-316.8000	-6.5590
75.8987	-316.8000	-6.5584
75.9983	-316.8000	-6.5532
76.0980	-316.8000	-6.5567
76.1988	-316.8000	-6.5567
76.2983	-316.8000	-6.5564
76.3988	-316.8000	-6.5577
76.4991	-316.8000	-6.5541
76.5998	-316.8000	-6.5578
76.6998	-316.8000	-6.5570
76.7999	-316.8000	-6.5575
76.9001	-316.8000	-6.5588
77.0002	-316.8000	-6.5579
77.1017	-316.8000	-6.5559
77.2016	-316.8000	-6.5561
77.3028	-316.8000	-6.5565
77.4023	-316.8000	-6.5557
77.5028	-316.8000	-6.5547
77.6021	-316.8000	-6.5559
77.7024	-316.8000	-6.5527
77.8027	-316.8000	-6.5561
77.9026	-316.8000	-6.5558
78.0036	-316.8000	-6.5541
78.1036	-316.8000	-6.5546
78.2038	-316.8000	-6.5553
78.3034	-316.8000	-6.5581
78.4040	-316.8000	-6.5569
78.5041	-316.8000	-6.5549
78.6044	-316.8000	-6.5553
78.7043	-316.8000	-6.5539
78.8041	-316.8000	-6.5534
78.9051	-316.8000	-6.5556
79.0057	-316.8000	-6.5534
79.1053	-316.8000	-6.5510
79.2055	-316.8000	-6.5525
79.3053	-316.8000	-6.5522
79.4057	-316.8000	-6.5518
79.5053	-316.8000	-6.5498
79.6051	-316.8000	-6.5506
79.7053	-316.8000	-6.5510
79.8063	-316.8000	-6.5491
79.9067	-316.8000	-6.5517
80.0064	-316.8000	-6.5523
80.1062	-316.8000	-6.5504
80.2064	-316.8000	-6.5516
80.3067	-316.8000	-6.5505
80.4064	-316.8000	-6.5483
80.5079	-316.8000	-6.5523
80.6077	-316.8000	-6.5459
80.7080	-316.8000	-6.5467
80.8073	-316.8000	-6.5476
80.9073	-316.8000	-6.5526
81.0079	-316.8000	-6.5530
81.1079	-316.8000	-6.5451
81.2084	-316.8000	-6.5485
81.3082	-316.8000	-6.5498
81.4091	-316.8000	-6.5466
81.5095	-316.8000	-6.5479
81.6093	-316.8000	-6.5512
81.7107	-316.8000	-6.5497
81.8103	-316.8000	-6.5482
81.9119	-316.8000	-6.5512
82.0124	-316.8000	-6.5497
82.1127	-316.8000	-6.5544
82.2128	-316.8000	-6.5472
82.3150	-316.8000	-6.5448
82.4149	-316.8000	-6.5500
82.5145	-316.8000	-6.5490
82.6142	-316.8000	-6.5460
82.7151	-316.8000	-6.5474
82.8162	-316.8000	-6.5481
82.9166	-316.8000	-6.5456
83.0163	-316.8000	-6.5435
83.1170	-316.8000	-6.5447
83.2171	-316.8000	-6.5452
83.3187	-316.8000	-6.5420
83.4185	-316.8000	-6.5463
83.5185	-316.8000	-6.5468
83.6192	-316.8000	-6.5460
83.7192	-316.8000	-6.5462
83.8197	-316.8000	-6.5432
83.9196	-316.8000	-6.5426
84.0207	-316.8000	-6.5442
84.1204	-316.8000	-6.5438
84.2207	-316.8000	-6.5430
84.3204	-316.8000	-6.5448
84.4203	-316.8000	-6.5444
84.5213	-316.8000	-6.5441
84.6217	-316.8000	-6.5468
84.7216	-316.8000	-6.5457
84.8214	-316.8000	-6.5435
84.9222	-316.8000	-6.5412
85.0228	-316.8000	-6.5421
85.1227	-316.8000	-6.5416
85.2236	-316.8000	-6.5397
85.3236	-316.8000	-6.5406
85.4232	-316.8000	-6.5407
85.5238	-316.8000	-6.5399
85.6241	-316.8000	-6.5422
85.7258	-316.8000	-6.5427
85.8254	-316.8000	-6.5409
85.9255	-316.8000	-6.5416
86.0261	-316.8000	-6.5410
86.1265	-316.8000	-6.5411
86.2267	-316.8000	-6.5393
86.3264	-316.8000	-6.5423
86.4266	-316.8000	-6.5398
86.5263	-316.8000	-6.5392
86.6268	-316.8000	-6.5380
86.7269	-316.8000	-6.5364
86.8262	-316.8000	-6.5393
86.9266	-316.8000	-6.5373
87.0267	-316.8000	-6.5381
87.1266	-316.8000	-6.5387
87.2264	-316.8000	-6.5377
87.3266	-316.8000	-6.5357
87.4267	-316.8000	-6.5362
87.5263	-316.8000	-6.5380
87.6263	-316.8000	-6.5370
87.7263	-316.8000	-6.5385
87.8262	-316.8000	-6.5369
87.9272	-316.8000	-6.5383
88.0277	-316.8000	-6.5337
88.1273	-316.8000	-6.5359
88.2280	-316.8000	-6.5368
88.3276	-316.8000	-6.5354
88.4274	-316.8000	-6.5355
88.5280	-316.8000	-6.5347
88.6282	-316.8000	-6.5350
88.7283	-316.8000	-6.5377
88.8290	-316.8000	-6.5357
88.9285	-316.8000	-6.5365
89.0287	-316.8000	-6.5376
89.1284	-316.8000	-6.5319
89.2290	-316.8000	-6.5331
89.3288	-316.8000	-6.5372
89.4281	-316.8000	-6.5338
89.5284	-316.8000	-6.5398
89.6290	-316.8000	-6.5374
89.7286	-316.8000	-6.5388
89.8289	-316.8000	-6.5360
89.9292	-316.8000	-6.5404
90.0298	-316.8000	-6.5373
90.1300	-316.8000	-6.5385
90.2300	-316.8000	-6.5359
90.3300	-316.8000	-6.5357
90.4306	-316.8000	-6.5354
90.5308	-316.8000	-6.5298
90.6303	-316.8000	-6.5338
90.7304	-316.8000	-6.5295
90.8304	-316.8000	-6.5300
90.9305	-316.8000	-6.5286
91.0318	-316.8000	-6.5312
91.1318	-316.8000	-6.5317
91.2329	-316.8000	-6.5313
91.3326	-316.8000	-6.5293
91.4329	-316.8000	-6.5290
91.5329	-316.8000	-6.5330
91.6325	-316.8000	-6.5316
91.7327	-316.8000	-6.5304
91.8329	-316.8000	-6.5339
91.9328	-316.8000	-6.5334
92.0324	-316.8000	-6.5327
92.1327	-316.8000	-6.5308
92.2333	-316.8000	-6.5319
92.3347	-316.8000	-6.5306
92.4350	-316.8000	-6.5311
92.5347	-316.8000	-6.5289
92.6355	-316.8000	-6.5334
92.7363	-316.8000	-6.5289
92.8364	-316.8000	-6.5292
92.9369	-316.8000	-6.5278
93.0368	-316.8000	-6.5262
93.1362	-316.8000	-6.5283
93.2362	-316.8000	-6.5280
93.3361	-316.8000	-6.5254
93.4361	-316.8000	-6.5282
93.5367	-316.8000	-6.5297
93.6369	-316.8000	-6.5268
93.7364	-316.8000	-6.5287
93.8371	-316.8000	-6.5287
93.9364	-316.8000	-6.5277
94.0364	-316.8000	-6.5255
94.1365	-316.8000	-6.5257
94.2363	-316.8000	-6.5266
94.3373	-316.8000	-6.5277
94.4378	-316.8000	-6.5273
94.5383	-316.8000	-6.5279
94.6386	-316.8000	-6.5284
94.7381	-316.8000	-6.5301
94.8387	-316.8000	-6.5306
94.9395	-316.8000	-6.5259
95.0408	-316.8000	-6.5282
95.1404	-316.8000	-6.5265
95.2403	-316.8000	-6.5253
95.3404	-316.8000	-6.5217
95.4405	-316.8000	-6.5279
95.5404	-316.8000	-6.5314
95.6415	-316.8000	-6.5243
95.7426	-316.8000	-6.5272
95.8428	-316.8000	-6.5259
95.9424	-316.8000	-6.5226
96.0426	-316.8000	-6.5227
96.1431	-316.8000	-6.5243
96.2429	-316.8000	-6.5260
96.3424	-316.8000	-6.5222
96.4428	-316.8000	-6.5231
96.5428	-316.8000	-6.5234
96.6429	-316.8000	-6.5231
96.7426	-316.8000	-6.5207
96.8429	-316.8000	-6.5219
96.9427	-316.8000	-6.5221
97.0429	-316.8000	-6.5231
97.1429	-316.8000	-6.5252
97.2429	-316.8000	-6.5222
97.3429	-316.8000	-6.5224
97.4429	-316.8000	-6.5248
97.5427	-316.8000	-6.5251
97.6429	-316.8000	-6.5208
97.7428	-316.8000	-6.5220
97.8423	-316.8000	-6.5205
97.9437	-316.8000	-6.5203
98.0439	-316.8000	-6.5238
98.1441	-316.8000	-6.5228
98.2434	-316.8000	-6.5211
98.3439	-316.8000	-6.5214
98.4451	-316.8000	-6.5211
98.5448	-316.8000	-6.5203
98.6449	-316.8000	-6.5209
98.7453	-316.8000	-6.5179
98.8461	-316.8000	-6.5210
98.9455	-316.8000	-6.5215
99.0471	-316.8000	-6.5225
99.1466	-316.8000	-6.5184
99.2470	-316.8000	-6.5200
99.3468	-316.8000	-6.5223
99.4467	-316.8000	-6.5197
99.5474	-316.8000	-6.5217
99.6475	-316.8000	-6.5214
99.7480	-316.8000	-6.5209
99.8474	-316.8000	-6.5197
99.9486	-316.8000	-6.5161
100.0488	-316.8000	-6.5200
100.1487	-316.8000	-6.5160
100.2485	-316.8000	-6.5141
100.3499	-316.8000	-6.5145
100.4510	-316.8000	-6.5197
100.5502	-316.8000	-6.5159
100.6505	-316.8000	-6.5145
100.7505	-316.8000	-6.5115
100.8505	-316.8000	-6.5159
100.9517	-316.8000	-6.5236
101.0524	-316.8000	-6.5149
101.1526	-316.8000	-6.5155
101.2527	-316.8000	-6.5168
101.3523	-316.8000	-6.5183
101.4525	-316.8000	-6.5127
101.5529	-316.8000	-6.5153
101.6527	-316.8000	-6.5172
101.7523	-316.8000	-6.5177
101.8529	-316.8000	-6.5146
101.9537	-316.8000	-6.5183
102.0537	-316.8000	-6.5191
102.1533	-316.8000	-6.5148
102.2533	-316.8000	-6.5175
102.3539	-316.8000	-6.5173
102.4537	-316.8000	-6.5184
102.5541	-316.8000	-6.5122
102.6537	-316.8000	-6.5159
102.7534	-316.8000	-6.5150
102.8538	-316.8000	-6.5158
102.9536	-316.8000	-6.5134
103.0533	-316.8000	-6.5111
103.1547	-316.8000	-6.5087
103.2544	-316.8000	-6.5100
103.3549	-316.8000	-6.5111
103.4557	-316.8000	-6.5123
103.5563	-316.8000	-6.5106
103.6568	-316.8000	-6.5141
103.7577	-316.8000	-6.5102
103.8574	-316.8000	-6.5111
103.9576	-316.8000	-6.5109
104.0578	-316.8000	-6.5131
104.1577	-316.8000	-6.5129
104.2572	-316.8000	-6.5110
104.3574	-316.8000	-6.5101
104.4578	-316.8000	-6.5116
104.5578	-316.8000	-6.5104
104.6580	-316.8000	-6.5062
104.7581	-316.8000	-6.5085
104.8575	-316.8000	-6.5096
104.9586	-316.8000	-6.5079
105.0595	-316.8000	-6.5103
105.1601	-316.8000	-6.5113
105.2604	-316.8000	-6.5082
105.3604	-316.8000	-6.5111
105.4604	-316.8000	-6.5098
105.5607	-316.8000	-6.5122
105.6608	-316.8000	-6.5125
105.7606	-316.8000	-6.5102
105.8613	-316.8000	-6.5103
105.9613	-316.8000	-6.5086
106.0625	-316.8000	-6.5090
106.1624	-316.8000	-6.5075
106.2626	-316.8000	-6.5094
106.3627	-316.8000	-6.5113
106.4625	-316.8000	-6.5091
106.5629	-316.8000	-6.5084
106.6624	-316.8000	-6.5094
106.7628	-316.8000	-6.5073
106.8634	-316.8000	-6.5059
106.9638	-316.8000	-6.5087
107.0635	-316.8000	-6.5062
107.1637	-316.8000	-6.5063
107.2634	-316.8000	-6.5076
107.3637	-316.8000	-6.5068
107.4635	-316.8000	-6.5034
107.5635	-316.8000	-6.5089
107.6637	-316.8000	-6.5080
107.7638	-316.8000	-6.5060
107.8636	-316.8000	-6.5060
107.9635	-316.8000	-6.5067
108.0648	-316.8000	-6.5066
108.1643	-316.8000	-6.5102
108.2647	-316.8000	-6.5078
108.3647	-316.8000	-6.5045
108.4654	-316.8000	-6.5081
108.5658	-316.8000	-6.5097
108.6657	-316.8000	-6.5097
108.7658	-316.8000	-6.5074
108.8659	-316.8000	-6.5092
108.9657	-316.8000	-6.5075
109.0653	-316.8000	-6.5040
109.1671	-316.8000	-6.5036
109.2669	-316.8000	-6.5039
109.3664	-316.8000	-6.5057
109.4673	-316.8000	-6.5053
109.5684	-316.8000	-6.5086
109.6691	-316.8000	-6.5056
109.7691	-316.8000	-6.5063
109.8690	-316.8000	-6.5038
109.9683	-316.8000	-6.5080
110.0690	-316.8000	-6.5077
110.1691	-316.8000	-6.5036
110.2683	-316.8000	-6.5075
110.3686	-316.8000	-6.5086
110.4683	-316.8000	-6.5055
110.5684	-316.8000	-6.5047
110.6689	-316.8000	-6.5087
110.7695	-316.8000	-6.5078
110.8700	-316.8000	-6.5019
110.9698	-316.8000	-6.5033
111.0704	-316.8000	-6.4995
111.1710	-316.8000	-6.4998
111.2706	-316.8000	-6.5006
111.3706	-316.8000	-6.5037
111.4707	-316.8000	-6.5026
111.5705	-316.8000	-6.5024
111.6705	-316.8000	-6.5038
111.7704	-316.8000	-6.5023
111.8715	-316.8000	-6.4992
111.9725	-316.8000	-6.5055
112.0730	-316.8000	-6.5012
112.1728	-316.8000	-6.4993
112.2732	-316.8000	-6.4993
112.3728	-316.8000	-6.5007
112.4739	-316.8000	-6.4995
112.5735	-316.8000	-6.4961
112.6742	-316.8000	-6.4996
112.7736	-316.8000	-6.5028
112.8733	-316.8000	-6.5003
112.9745	-316.8000	-6.4963
113.0746	-316.8000	-6.4990
113.1745	-316.8000	-6.4985
113.2743	-316.8000	-6.5001
113.3751	-316.8000	-6.5034
113.4748	-316.8000	-6.4983
113.5761	-316.8000	-6.4994
113.6754	-316.8000	-6.5010
113.7761	-316.8000	-6.4981
113.8759	-316.8000	-6.5012
113.9754	-316.8000	-6.4986
114.0753	-316.8000	-6.4993
114.1759	-316.8000	-6.4997
114.2757	-316.8000	-6.4955
114.3772	-316.8000	-6.5018
114.4770	-316.8000	-6.4958
114.5764	-316.8000	-6.4943
114.6769	-316.8000	-6.4946
114.7766	-316.8000	-6.4920
114.8770	-316.8000	-6.4936
114.9772	-316.8000	-6.4961
115.0770	-316.8000	-6.4932
115.1764	-316.8000	-6.4980
115.2764	-316.8000	-6.4883
115.3774	-316.8000	-6.4900
115.4777	-316.8000	-6.4930
115.5782	-316.8000	-6.4919
115.6779	-316.8000	-6.4947
115.7790	-316.8000	-6.4961
115.8790	-316.8000	-6.4930
115.9789	-316.8000	-6.4928
116.0790	-316.8000	-6.4951
116.1794	-316.8000	-6.4928
116.2798	-316.8000	-6.4954
116.3798	-316.8000	-6.4960
116.4804	-316.8000	-6.4972
116.5804	-316.8000	-6.4952
116.6806	-316.8000	-6.4940
116.7807	-316.8000	-6.4943
116.8806	-316.8000	-6.4970
116.9808	-316.8000	-6.4958
117.0804	-316.8000	-6.4937
117.1807	-316.8000	-6.4952
117.2807	-316.8000	-6.4976
117.3806	-316.8000	-6.4957
117.4809	-316.8000	-6.4941
117.5807	-316.8000	-6.4963
117.6804	-316.8000	-6.4958
117.7806	-316.8000	-6.4982
117.8806	-316.8000	-6.4937
117.9827	-316.8000	-6.4949
118.0832	-316.8000	-6.4946
118.1828	-316.8000	-6.4897
118.2827	-316.8000	-6.4916
118.3827	-316.8000	-6.4967
118.4831	-316.8000	-6.4936
118.5824	-316.8000	-6.4908
118.6826	-316.8000	-6.4913
118.7830	-316.8000	-6.4927
118.8830	-316.8000	-6.5006
118.9826	-316.8000	-6.4912
119.0837	-316.8000	-6.4908
119.1835	-316.8000	-6.4889
119.2843	-316.8000	-6.4931
119.3838	-316.8000	-6.4953
119.4839	-316.8000	-6.4905
119.5837	-316.8000	-6.4945
119.6843	-316.8000	-6.4903
119.7834	-316.8000	-6.4882
119.8841	-316.8000	-6.4910
119.9834	-316.8000	-6.4895
120.0843	-316.8000	-6.4912
120.1836	-316.8000	-6.4888
120.2838	-316.8000	-6.4848
120.3848	-316.8000	-6.4895
120.4849	-316.8000	-6.4877
120.5858	-316.8000	-6.4881
120.6862	-316.8000	-6.4894
120.7866	-316.8000	-6.4866
120.8867	-316.8000	-6.4857
120.9869	-316.8000	-6.4925
121.0866	-316.8000	-6.4891
121.1875	-316.8000	-6.4901
121.2877	-316.8000	-6.4910
121.3881	-316.8000	-6.4914
121.4877	-316.8000	-6.4880
121.5884	-316.8000	-6.4887
121.6892	-316.8000	-6.4873
121.7892	-316.8000	-6.4882
121.8895	-316.8000	-6.4906
121.9897	-316.8000	-6.4881
122.0908	-316.8000	-6.4880
122.1907	-316.8000	-6.4877
122.2907	-316.8000	-6.4864
122.3907	-316.8000	-6.4860
122.4908	-316.8000	-6.4857
122.5911	-316.8000	-6.4859
122.6907	-316.8000	-6.4875
122.7905	-316.8000	-6.4885
122.8907	-316.8000	-6.4877
122.9914	-316.8000	-6.4881
123.0925	-316.8000	-6.4849
123.1928	-316.8000	-6.4862
123.2925	-316.8000	-6.4849
123.3933	-316.8000	-6.4889
123.4930	-316.8000	-6.4876
123.5927	-316.8000	-6.4835
123.6927	-316.8000	-6.4846
123.7927	-316.8000	-6.4847
123.8944	-316.8000	-6.4848
123.9941	-316.8000	-6.4857
124.0943	-316.8000	-6.4839
124.1949	-316.8000	-6.4839
124.2944	-316.8000	-6.4844
124.3945	-316.8000	-6.4849
124.4964	-316.8000	-6.4835
124.5954	-316.8000	-6.4860
124.6962	-316.8000	-6.4842
124.7955	-316.8000	-6.4828
124.8969	-316.8000	-6.4848
124.9968	-316.8000	-6.4794
125.0984	-316.8000	-6.4792
125.1981	-316.8000	-6.4853
125.2980	-316.8000	-6.4839
125.3979	-316.8000	-6.4837
125.4976	-316.8000	-6.4804
125.5974	-316.8000	-6.4843
125.6979	-316.8000	-6.4818
125.7974	-316.8000	-6.4881
125.8981	-316.8000	-6.4837
125.9976	-316.8000	-6.4826
126.0980	-316.8000	-6.4786
126.1974	-316.8000	-6.4839
126.2976	-316.8000	-6.4823
126.3987	-316.8000	-6.4828
126.4995	-316.8000	-6.4828
126.5997	-316.8000	-6.4800
126.7012	-316.8000	-6.4816
126.8005	-316.8000	-6.4815
126.9007	-316.8000	-6.4814
127.0018	-316.8000	-6.4804
127.1016	-316.8000	-6.4809
127.2028	-316.8000	-6.4792
127.3027	-316.8000	-6.4784
127.4027	-316.8000	-6.4839
127.5028	-316.8000	-6.4811
127.6032	-316.8000	-6.4819
127.7041	-316.8000	-6.4788
127.8047	-316.8000	-6.4833
127.9051	-316.8000	-6.4817
128.0047	-316.8000	-6.4834
128.1047	-316.8000	-6.4820
128.2052	-316.8000	-6.4836
128.3052	-316.8000	-6.4822
128.4048	-316.8000	-6.4836
128.5047	-316.8000	-6.4848
128.6046	-316.8000	-6.4808
128.7053	-316.8000	-6.4814
128.8051	-316.8000	-6.4796
128.9054	-316.8000	-6.4795
129.0052	-316.8000	-6.4765
129.1055	-316.8000	-6.4764
129.2071	-316.8000	-6.4800
129.3076	-316.8000	-6.4801
129.4084	-316.8000	-6.4778
129.5081	-316.8000	-6.4788
129.6075	-316.8000	-6.4793
129.7084	-316.8000	-6.4790
129.8091	-316.8000	-6.4749
129.9093	-316.8000	-6.4778
130.0095	-316.8000	-6.4769
130.1102	-316.8000	-6.4770
130.2099	-316.8000	-6.4768
130.3114	-316.8000	-6.4765
130.4112	-316.8000	-6.4781
130.5109	-316.8000	-6.4775
130.6106	-316.8000	-6.4763
130.7106	-316.8000	-6.4792
130.8108	-316.8000	-6.4812
130.9108	-316.8000	-6.4755
131.0108	-316.8000	-6.4770
131.1108	-316.8000	-6.4803
131.2108	-316.8000	-6.4768
131.3108	-316.8000	-6.4757
131.4109	-316.8000	-6.4722
131.5108	-316.8000	-6.4751
131.6108	-316.8000	-6.4776
131.7116	-316.8000	-6.4791
131.8121	-316.8000	-6.4754
131.9116	-316.8000	-6.4783
132.0127	-316.8000	-6.4756
132.1127	-316.8000	-6.4772
132.2127	-316.8000	-6.4774
132.3132	-316.8000	-6.4783
132.4127	-316.8000	-6.4781
132.5128	-316.8000	-6.4752
132.6127	-316.8000	-6.4738
132.7126	-316.8000	-6.4772
132.8130	-316.8000	-6.4750
132.9135	-316.8000	-6.4775
133.0150	-316.8000	-6.4770
133.1146	-316.8000	-6.4767
133.2154	-316.8000	-6.4738
133.3152	-316.8000	-6.4742
133.4161	-316.8000	-6.4739
133.5185	-316.8000	-6.4749
133.6174	-316.8000	-6.4767
133.7174	-316.8000	-6.4766
133.8167	-316.8000	-6.4749
133.9168	-316.8000	-6.4711
134.0174	-316.8000	-6.4763
134.1172	-316.8000	-6.4737
134.2177	-316.8000	-6.4765
134.3178	-316.8000	-6.4756
134.4181	-316.8000	-6.4787
134.5179	-316.8000	-6.4737
134.6181	-316.8000	-6.4768
134.7178	-316.8000	-6.4801
134.8186	-316.8000	-6.4751
134.9188	-316.8000	-6.4733
135.0200	-316.8000	-6.4725
135.1204	-316.8000	-6.4745
135.2205	-316.8000	-6.4691
135.3208	-316.8000	-6.4711
135.4215	-316.8000	-6.4755
135.5207	-316.8000	-6.4677
135.6214	-316.8000	-6.4724
135.7209	-316.8000	-6.4697
135.8206	-316.8000	-6.4706
135.9206	-316.8000	-6.4690
136.0206	-316.8000	-6.4695
136.1210	-316.8000	-6.4688
136.2221	-316.8000	-6.4689
136.3231	-316.8000	-6.4668
136.4241	-316.8000	-6.4646
136.5238	-316.8000	-6.4652
136.6236	-316.8000	-6.4694
136.7241	-316.8000	-6.4648
136.8241	-316.8000	-6.4656
136.9243	-316.8000	-6.4677
137.0249	-316.8000	-6.4682
137.1256	-316.8000	-6.4657
137.2265	-316.8000	-6.4647
137.3273	-316.8000	-6.4666
137.4270	-316.8000	-6.4670
137.5280	-316.8000	-6.4678
137.6276	-316.8000	-6.4733
137.7281	-316.8000	-6.4701
137.8283	-316.8000	-6.4695
137.9286	-316.8000	-6.4704
138.0294	-316.8000	-6.4722
138.1295	-316.8000	-6.4682
138.2290	-316.8000	-6.4751
138.3292	-316.8000	-6.4655
138.4297	-316.8000	-6.4669
138.5302	-316.8000	-6.4666
138.6302	-316.8000	-6.4675
138.7301	-316.8000	-6.4649
138.8302	-316.8000	-6.4707
138.9298	-316.8000	-6.4692
139.0300	-316.8000	-6.4634
139.1313	-316.8000	-6.4654
139.2307	-316.8000	-6.4651
139.3309	-316.8000	-6.4681
139.4308	-316.8000	-6.4653
139.5309	-316.8000	-6.4694
139.6318	-316.8000	-6.4672
139.7330	-316.8000	-6.4687
139.8332	-316.8000	-6.4670
139.9347	-316.8000	-6.4655
140.0329	-316.8000	-6.4673
140.1330	-316.8000	-6.4674
140.2332	-316.8000	-6.4665
140.3328	-316.8000	-6.4651
140.4330	-316.8000	-6.4674
140.5331	-316.8000	-6.4667
140.6344	-316.8000	-6.4652
140.7339	-316.8000	-6.4707
140.8345	-316.8000	-6.4664
140.9345	-316.8000	-6.4655
141.0364	-316.8000	-6.4663
141.1361	-316.8000	-6.4659
141.2358	-316.8000	-6.4641
141.3357	-316.8000	-6.4655
141.4356	-316.8000	-6.4647
141.5361	-316.8000	-6.4676
141.6358	-316.8000	-6.4671
141.7371	-316.8000	-6.4636
141.8378	-316.8000	-6.4629
141.9386	-316.8000	-6.4663
142.0389	-316.8000	-6.4638
142.1387	-316.8000	-6.4611
142.2391	-316.8000	-6.4642
142.3393	-316.8000	-6.4666
142.4388	-316.8000	-6.4634
142.5392	-316.8000	-6.4626
142.6393	-316.8000	-6.4653
142.7386	-316.8000	-6.4653
142.8388	-316.8000	-6.4647
142.9386	-316.8000	-6.4673
143.0394	-316.8000	-6.4645
143.1393	-316.8000	-6.4661
143.2387	-316.8000	-6.4622
143.3394	-316.8000	-6.4621
143.4391	-316.8000	-6.4643
143.5386	-316.8000	-6.4606
143.6392	-316.8000	-6.4641
143.7396	-316.8000	-6.4632
143.8406	-316.8000	-6.4642
143.9408	-316.8000	-6.4645
144.0422	-316.8000	-6.4613
144.1424	-316.8000	-6.4628
144.2419	-316.8000	-6.4618
144.3422	-316.8000	-6.4624
144.4430	-316.8000	-6.4582
144.5433	-316.8000	-6.4594
144.6430	-316.8000	-6.4623
144.7430	-316.8000	-6.4596
144.8429	-316.8000	-6.4615
144.9433	-316.8000	-6.4615
145.0428	-316.8000	-6.4612
145.1430	-316.8000	-6.4620
145.2431	-316.8000	-6.4617
145.3439	-316.8000	-6.4595
145.4451	-316.8000	-6.4602
145.5455	-316.8000	-6.4598
145.6461	-316.8000	-6.4594
145.7463	-316.8000	-6.4601
145.8468	-316.8000	-6.4627
145.9472	-316.8000	-6.4635
146.0476	-316.8000	-6.4618
146.1486	-316.8000	-6.4592
146.2480	-316.8000	-6.4600
146.3495	-316.8000	-6.4578
146.4493	-316.8000	-6.4579
146.5486	-316.8000	-6.4585
146.6489	-316.8000	-6.4565
146.7488	-316.8000	-6.4544
146.8498	-316.8000	-6.4580
146.9505	-316.8000	-6.4571
147.0499	-316.8000	-6.4562
147.1500	-316.8000	-6.4572
147.2497	-316.8000	-6.4539
147.3501	-316.8000	-6.4561
147.4505	-316.8000	-6.4588
147.5502	-316.8000	-6.4562
147.6504	-316.8000	-6.4583
147.7502	-316.8000	-6.4571
147.8499	-316.8000	-6.4569
147.9501	-316.8000	-6.4556
148.0505	-316.8000	-6.4536
148.1499	-316.8000	-6.4570
148.2500	-316.8000	-6.4525
148.3510	-316.8000	-6.4529
148.4514	-316.8000	-6.4556
148.5507	-316.8000	-6.4553
148.6519	-316.8000	-6.4574
148.7529	-316.8000	-6.4544
148.8531	-316.8000	-6.4558
148.9538	-316.8000	-6.4545
149.0540	-316.8000	-6.4557
149.1548	-316.8000	-6.4548
149.2549	-316.8000	-6.4548
149.3580	-316.8000	-6.4560
149.4561	-316.8000	-6.4551
149.5567	-316.8000	-6.4548
149.6568	-316.8000	-6.4524
149.7577	-316.8000	-6.4536
149.8586	-316.8000	-6.4522
149.9588	-316.8000	-6.4515
150.0598	-316.8000	-6.4530
150.1604	-316.8000	-6.4554
150.2602	-316.8000	-6.4545
150.3599	-316.8000	-6.4543
150.4602	-316.8000	-6.4546
150.5602	-316.8000	-6.4543
150.6606	-316.8000	-6.4534
150.7610	-316.8000	-6.4519
150.8610	-316.8000	-6.4546
150.9610	-316.8000	-6.4537
151.0608	-316.8000	-6.4558
151.1610	-316.8000	-6.4573
151.2610	-316.8000	-6.4539
151.3610	-316.8000	-6.4554
151.4625	-316.8000	-6.4536
151.5624	-316.8000	-6.4522
151.6619	-316.8000	-6.4515
151.7636	-316.8000	-6.4520
151.8634	-316.8000	-6.4541
151.9632	-316.8000	-6.4538
152.0633	-316.8000	-6.4543
152.1631	-316.8000	-6.4537
152.2639	-316.8000	-6.4529
152.3646	-316.8000	-6.4527
152.4653	-316.8000	-6.4498
152.5661	-316.8000	-6.4511
152.6660	-316.8000	-6.4511
152.7662	-316.8000	-6.4524
152.8658	-316.8000	-6.4506
152.9662	-316.8000	-6.4517
153.0663	-316.8000	-6.4545
153.1665	-316.8000	-6.4561
153.2665	-316.8000	-6.4523
153.3660	-316.8000	-6.4524
153.4663	-316.8000	-6.4507
153.5672	-316.8000	-6.4525
153.6674	-316.8000	-6.4530
153.7673	-316.8000	-6.4531
153.8668	-316.8000	-6.4536
153.9684	-316.8000	-6.4528
154.0682	-316.8000	-6.4523
154.1677	-316.8000	-6.4515
154.2688	-316.8000	-6.4503
154.3693	-316.8000	-6.4511
154.4695	-316.8000	-6.4534
154.5690	-316.8000	-6.4519
154.6688	-316.8000	-6.4532
154.7690	-316.8000	-6.4552
154.8691	-316.8000	-6.4493
154.9700	-316.8000	-6.4493
155.0708	-316.8000	-6.4489
155.1710	-316.8000	-6.4438
155.2708	-316.8000	-6.4481
155.3710	-316.8000	-6.4482
155.4709	-316.8000	-6.4475
155.5710	-316.8000	-6.4492
155.6708	-316.8000	-6.4466
155.7711	-316.8000	-6.4496
155.8710	-316.8000	-6.4474
155.9710	-316.8000	-6.4489
156.0708	-316.8000	-6.4493
156.1709	-316.8000	-6.4487
156.2710	-316.8000	-6.4490
156.3710	-316.8000	-6.4494
156.4718	-316.8000	-6.4501
156.5720	-316.8000	-6.4468
156.6720	-316.8000	-6.4478
156.7726	-316.8000	-6.4485
156.8719	-316.8000	-6.4495
156.9718	-316.8000	-6.4457
157.0719	-316.8000	-6.4499
157.1736	-316.8000	-6.4512
157.2730	-316.8000	-6.4502
157.3734	-316.8000	-6.4514
157.4732	-316.8000	-6.4467
157.5732	-316.8000	-6.4487
157.6729	-316.8000	-6.4476
157.7734	-316.8000	-6.4495
157.8734	-316.8000	-6.4500
157.9741	-316.8000	-6.4491
158.0738	-316.8000	-6.4515
158.1746	-316.8000	-6.4511
158.2740	-316.8000	-6.4497
158.3744	-316.8000	-6.4474
158.4747	-316.8000	-6.4476
158.5750	-316.8000	-6.4482
158.6752	-316.8000	-6.4472
158.7754	-316.8000	-6.4507
158.8754	-316.8000	-6.4484
158.9756	-316.8000	-6.4487
159.0756	-316.8000	-6.4485
159.1749	-316.8000	-6.4498
159.2757	-316.8000	-6.4484
159.3753	-316.8000	-6.4472
159.4751	-316.8000	-6.4466
159.5766	-316.8000	-6.4461
159.6768	-316.8000	-6.4485
159.7778	-316.8000	-6.4443
159.8778	-316.8000	-6.4433
159.9787	-316.8000	-6.4448
160.0785	-316.8000	-6.4468
160.1783	-316.8000	-6.4462
160.2785	-316.8000	-6.4443
160.3789	-316.8000	-6.4457
160.4797	-316.8000	-6.4460
160.5798	-316.8000	-6.4477
160.6798	-316.8000	-6.4456
160.7799	-316.8000	-6.4440
160.8804	-316.8000	-6.4460
160.9803	-316.8000	-6.4447
161.0813	-316.8000	-6.4442
161.1809	-316.8000	-6.4462
161.2808	-316.8000	-6.4450
161.3812	-316.8000	-6.4410
161.4809	-316.8000	-6.4411
161.5820	-316.8000	-6.4410
161.6820	-316.8000	-6.4390
161.7834	-316.8000	-6.4403
161.8839	-316.8000	-6.4420
161.9847	-316.8000	-6.4396
162.0844	-316.8000	-6.4407
162.1857	-316.8000	-6.4411
162.2854	-316.8000	-6.4406
162.3852	-316.8000	-6.4394
162.4849	-316.8000	-6.4389
162.5849	-316.8000	-6.4395
162.6849	-316.8000	-6.4408
162.7850	-316.8000	-6.4414
162.8850	-316.8000	-6.4429
162.9850	-316.8000	-6.4425
163.0853	-316.8000	-6.4416
163.1859	-316.8000	-6.4390
163.2861	-316.8000	-6.4406
163.3860	-316.8000	-6.4401
163.4860	-316.8000	-6.4386
163.5867	-316.8000	-6.4401
163.6862	-316.8000	-6.4395
163.7862	-316.8000	-6.4398
163.8862	-316.8000	-6.4402
163.9866	-316.8000	-6.4373
164.0863	-316.8000	-6.4412
164.1858	-316.8000	-6.4401
164.2861	-316.8000	-6.4405
164.3867	-316.8000	-6.4388
164.4866	-316.8000	-6.4394
164.5865	-316.8000	-6.4414
164.6867	-316.8000	-6.4409
164.7866	-316.8000	-6.4381
164.8861	-316.8000	-6.4398
164.9865	-316.8000	-6.4393
165.0867	-316.8000	-6.4405
165.1874	-316.8000	-6.4400
165.2876	-316.8000	-6.4413
165.3876	-316.8000	-6.4407
165.4869	-316.8000	-6.4420
165.5876	-316.8000	-6.4418
165.6877	-316.8000	-6.4439
165.7876	-316.8000	-6.4416
165.8882	-316.8000	-6.4415
165.9889	-316.8000	-6.4400
166.0896	-316.8000	-6.4431
166.1889	-316.8000	-6.4381
166.2897	-316.8000	-6.4448
166.3891	-316.8000	-6.4360
166.4893	-316.8000	-6.4409
166.5900	-316.8000	-6.4373
166.6906	-316.8000	-6.4373
166.7902	-316.8000	-6.4380
166.8901	-316.8000	-6.4387
166.9910	-316.8000	-6.4390
167.0911	-316.8000	-6.4379
167.1911	-316.8000	-6.4418
167.2920	-316.8000	-6.4410
167.3921	-316.8000	-6.4399
167.4930	-316.8000	-6.4370
167.5929	-316.8000	-6.4416
167.6936	-316.8000	-6.4411
167.7929	-316.8000	-6.4394
167.8931	-316.8000	-6.4388
167.9929	-316.8000	-6.4372
168.0930	-316.8000	-6.4375
168.1932	-316.8000	-6.4369
168.2933	-316.8000	-6.4360
168.3939	-316.8000	-6.4364
168.4942	-316.8000	-6.4358
168.5947	-316.8000	-6.4368
168.6946	-316.8000	-6.4346
168.7939	-316.8000	-6.4383
168.8950	-316.8000	-6.4388
168.9956	-316.8000	-6.4365
169.0950	-316.8000	-6.4370
169.1950	-316.8000	-6.4382
169.2952	-316.8000	-6.4382
169.3956	-316.8000	-6.4371
169.4950	-316.8000	-6.4385
169.5949	-316.8000	-6.4363
169.6957	-316.8000	-6.4353
169.7957	-316.8000	-6.4349
169.8950	-316.8000	-6.4351
169.9957	-316.8000	-6.4371
170.0950	-316.8000	-6.4343
170.1967	-316.8000	-6.4363
170.2962	-316.8000	-6.4344
170.3963	-316.8000	-6.4344
170.4962	-316.8000	-6.4328
170.5969	-316.8000	-6.4346
170.6972	-316.8000	-6.4340
170.7973	-316.8000	-6.4338
170.8978	-316.8000	-6.4370
170.9970	-316.8000	-6.4311
171.0980	-316.8000	-6.4335
171.1978	-316.8000	-6.4364
171.2988	-316.8000	-6.4331
171.3981	-316.8000	-6.4361
171.4985	-316.8000	-6.4369
171.5981	-316.8000	-6.4365
171.6981	-316.8000	-6.4332
171.7978	-316.8000	-6.4351
171.8984	-316.8000	-6.4370
171.9988	-316.8000	-6.4321
172.0991	-316.8000	-6.4346
172.1992	-316.8000	-6.4379
172.2996	-316.8000	-6.4394
172.3991	-316.8000	-6.4365
172.4996	-316.8000	-6.4335
172.5992	-316.8000	-6.4350
172.7005	-316.8000	-6.4319
172.8013	-316.8000	-6.4315
172.9011	-316.8000	-6.4327
173.0028	-316.8000	-6.4333
173.1025	-316.8000	-6.4318
173.2021	-316.8000	-6.4311
173.3019	-316.8000	-6.4318
173.4020	-316.8000	-6.4352
173.5030	-316.8000	-6.4306
173.6036	-316.8000	-6.4306
173.7031	-316.8000	-6.4311
173.8042	-316.8000	-6.4264
173.9041	-316.8000	-6.4308
174.0041	-316.8000	-6.4302
174.1041	-316.8000	-6.4286
174.2041	-316.8000	-6.4305
174.3040	-316.8000	-6.4288
174.4048	-316.8000	-6.4304
174.5041	-316.8000	-6.4314
174.6045	-316.8000	-6.4298
174.7045	-316.8000	-6.4307
174.8049	-316.8000	-6.4342
174.9051	-316.8000	-6.4319
175.0051	-316.8000	-6.4304
175.1054	-316.8000	-6.4293
175.2059	-316.8000	-6.4302
175.3075	-316.8000	-6.4313
175.4075	-316.8000	-6.4295
175.5079	-316.8000	-6.4319
175.6081	-316.8000	-6.4307
175.7080	-316.8000	-6.4295
175.8089	-316.8000	-6.4307
175.9099	-316.8000	-6.4307
176.0091	-316.8000	-6.4294
176.1094	-316.8000	-6.4309
176.2097	-316.8000	-6.4298
176.3090	-316.8000	-6.4334
176.4093	-316.8000	-6.4311
176.5093	-316.8000	-6.4297
176.6097	-316.8000	-6.4299
176.7098	-316.8000	-6.4284
176.8100	-316.8000	-6.4280
176.9105	-316.8000	-6.4292
177.0105	-316.8000	-6.4304
177.1102	-316.8000	-6.4273
177.2103	-316.8000	-6.4320
177.3104	-316.8000	-6.4290
177.4103	-316.8000	-6.4280
177.5100	-316.8000	-6.4310
177.6107	-316.8000	-6.4299
177.7107	-316.8000	-6.4303
177.8108	-316.8000	-6.4295
177.9107	-316.8000	-6.4287
178.0110	-316.8000	-6.4287
178.1112	-316.8000	-6.4304
178.2116	-316.8000	-6.4302
178.3113	-316.8000	-6.4285
178.4115	-316.8000	-6.4293
178.5109	-316.8000	-6.4317
178.6122	-316.8000	-6.4310
178.7121	-316.8000	-6.4283
178.8139	-316.8000	-6.4290
178.9141	-316.8000	-6.4298
179.0149	-316.8000	-6.4278
179.1149	-316.8000	-6.4301
179.2141	-316.8000	-6.4298
179.3141	-316.8000	-6.4298
179.4150	-316.8000	-6.4278
179.5150	-316.8000	-6.4280
179.6152	-316.8000	-6.4269
179.7152	-316.8000	-6.4294
179.8166	-316.8000	-6.4272
179.9169	-316.8000	-6.4283
180.0165	-316.8000	-6.4251
180.1169	-316.8000	-6.4243
180.2165	-316.8000	-6.4230
180.3160	-316.8000	-6.4262
180.4169	-316.8000	-6.4267
180.5175	-316.8000	-6.4246
180.6182	-316.8000	-6.4265
180.7184	-316.8000	-6.4258
180.8190	-316.8000	-6.4250
180.9193	-316.8000	-6.4250
181.0195	-316.8000	-6.4264
181.1196	-316.8000	-6.4235
181.2195	-316.8000	-6.4231
181.3192	-316.8000	-6.4259
181.4191	-316.8000	-6.4249
181.5189	-316.8000	-6.4241
181.6193	-316.8000	-6.4230
181.7191	-316.8000	-6.4238
181.8191	-316.8000	-6.4219
181.9195	-316.8000	-6.4248
182.0198	-316.8000	-6.4227
182.1192	-316.8000	-6.4255
182.2198	-316.8000	-6.4223
182.3198	-316.8000	-6.4222
182.4199	-316.8000	-6.4242
182.5201	-316.8000	-6.4257
182.6205	-316.8000	-6.4233
182.7206	-316.8000	-6.4219
182.8204	-316.8000	-6.4224
182.9202	-316.8000	-6.4222
183.0205	-316.8000	-6.4214
183.1205	-316.8000	-6.4223
183.2210	-316.8000	-6.4223
183.3211	-316.8000	-6.4194
183.4211	-316.8000	-6.4219
183.5223	-316.8000	-6.4210
183.6221	-316.8000	-6.4238
183.7228	-316.8000	-6.4225
183.8225	-316.8000	-6.4226
183.9222	-316.8000	-6.4236
184.0229	-316.8000	-6.4256
184.1233	-316.8000	-6.4258
184.2232	-316.8000	-6.4252
184.3231	-316.8000	-6.4238
184.4235	-316.8000	-6.4219
184.5234	-316.8000	-6.4231
184.6236	-316.8000	-6.4237
184.7237	-316.8000	-6.4221
184.8235	-316.8000	-6.4229
184.9235	-316.8000	-6.4221
185.0237	-316.8000	-6.4224
185.1243	-316.8000	-6.4230
185.2247	-316.8000	-6.4206
185.3249	-316.8000	-6.4214
185.4241	-316.8000	-6.4183
185.5249	-316.8000	-6.4202
185.6242	-316.8000	-6.4232
185.7251	-316.8000	-6.4209
185.8254	-316.8000	-6.4226
185.9252	-316.8000	-6.4216
186.0251	-316.8000	-6.4218
186.1252	-316.8000	-6.4184
186.2252	-316.8000	-6.4217
186.3258	-316.8000	-6.4196
186.4252	-316.8000	-6.4198
186.5254	-316.8000	-6.4185
186.6256	-316.8000	-6.4210
186.7250	-316.8000	-6.4184
186.8252	-316.8000	-6.4204
186.9263	-316.8000	-6.4190
187.0261	-316.8000	-6.4200
187.1268	-316.8000	-6.4194
187.2263	-316.8000	-6.4190
187.3263	-316.8000	-6.4187
187.4270	-316.8000	-6.4184
187.5266	-316.8000	-6.4192
187.6271	-316.8000	-6.4204
187.7277	-316.8000	-6.4215
187.8275	-316.8000	-6.4199
187.9272	-316.8000	-6.4206
188.0272	-316.8000	-6.4206
188.1272	-316.8000	-6.4176
188.2279	-316.8000	-6.4205
188.3272	-316.8000	-6.4201
188.4279	-316.8000	-6.4170
188.5277	-316.8000	-6.4180
188.6274	-316.8000	-6.4183
188.7272	-316.8000	-6.4170
188.8276	-316.8000	-6.4203
188.9282	-316.8000	-6.4178
189.0288	-316.8000	-6.4182
189.1287	-316.8000	-6.4181
189.2282	-316.8000	-6.4197
189.3290	-316.8000	-6.4183
189.4298	-316.8000	-6.4187
189.5299	-316.8000	-6.4153
189.6297	-316.8000	-6.4152
189.7298	-316.8000	-6.4161
189.8293	-316.8000	-6.4160
189.9291	-316.8000	-6.4166
190.0297	-316.8000	-6.4155
190.1299	-316.8000	-6.4164
190.2291	-316.8000	-6.4172
190.3297	-316.8000	-6.4164
190.4299	-316.8000	-6.4183
190.5309	-316.8000	-6.4174
190.6304	-316.8000	-6.4162
190.7315	-316.8000	-6.4156
190.8320	-316.8000	-6.4134
190.9312	-316.8000	-6.4169
191.0313	-316.8000	-6.4135
191.1313	-316.8000	-6.4158
191.2322	-316.8000	-6.4181
191.3323	-316.8000	-6.4201
191.4330	-316.8000	-6.4193
191.5337	-316.8000	-6.4194
191.6344	-316.8000	-6.4169
191.7347	-316.8000	-6.4152
191.8340	-316.8000	-6.4155
191.9354	-316.8000	-6.4144
192.0354	-316.8000	-6.4165
192.1356	-316.8000	-6.4164
192.2367	-316.8000	-6.4185
192.3366	-316.8000	-6.4169
192.4374	-316.8000	-6.4155
192.5382	-316.8000	-6.4162
192.6382	-316.8000	-6.4143
192.7386	-316.8000	-6.4131
192.8384	-316.8000	-6.4154
192.9385	-316.8000	-6.4152
193.0392	-316.8000	-6.4157
193.1398	-316.8000	-6.4154
193.2408	-316.8000	-6.4173
193.3401	-316.8000	-6.4169
193.4406	-316.8000	-6.4169
193.5405	-316.8000	-6.4159
193.6413	-316.8000	-6.4164
193.7414	-316.8000	-6.4155
193.8412	-316.8000	-6.4154
193.9412	-316.8000	-6.4139
194.0412	-316.8000	-6.4144
194.1412	-316.8000	-6.4135
194.2417	-316.8000	-6.4134
194.3416	-316.8000	-6.4143
194.4410	-316.8000	-6.4105
194.5413	-316.8000	-6.4105
194.6420	-316.8000	-6.4097
194.7412	-316.8000	-6.4146
194.8422	-316.8000	-6.4132
194.9435	-316.8000	-6.4146
195.0445	-316.8000	-6.4125
195.1441	-316.8000	-6.4148
195.2458	-316.8000	-6.4131
195.3459	-316.8000	-6.4116
195.4458	-316.8000	-6.4144
195.5453	-316.8000	-6.4137
195.6459	-316.8000	-6.4100
195.7457	-316.8000	-6.4133
195.8461	-316.8000	-6.4105
195.9462	-316.8000	-6.4149
196.0470	-316.8000	-6.4120
196.1468	-316.8000	-6.4145
196.2478	-316.8000	-6.4136
196.3473	-316.8000	-6.4121
196.4472	-316.8000	-6.4096
196.5473	-316.8000	-6.4084
196.6476	-316.8000	-6.4106
196.7490	-316.8000	-6.4116
196.8489	-316.8000	-6.4097
196.9486	-316.8000	-6.4108
197.0484	-316.8000	-6.4111
197.1489	-316.8000	-6.4110
197.2497	-316.8000	-6.4101
197.3494	-316.8000	-6.4120
197.4494	-316.8000	-6.4135
197.5499	-316.8000	-6.4103
197.6498	-316.8000	-6.4093
197.7506	-316.8000	-6.4124
197.8504	-316.8000	-6.4099
197.9506	-316.8000	-6.4129
198.0519	-316.8000	-6.4120
198.1518	-316.8000	-6.4115
198.2515	-316.8000	-6.4125
198.3512	-316.8000	-6.4129
198.4512	-316.8000	-6.4129
198.5514	-316.8000	-6.4120
198.6514	-316.8000	-6.4140
198.7519	-316.8000	-6.4124
198.8515	-316.8000	-6.4095
198.9514	-316.8000	-6.4119
199.0514	-316.8000	-6.4121
199.1513	-316.8000	-6.4103
199.2524	-316.8000	-6.4110
199.3535	-316.8000	-6.4092
199.4531	-316.8000	-6.4079
199.5538	-316.8000	-6.4099
199.6536	-316.8000	-6.4100
199.7531	-316.8000	-6.4063
199.8544	-316.8000	-6.4130
199.9543	-316.8000	-6.4104
200.0552	-316.8000	-6.4073
200.1552	-316.8000	-6.4121
200.2570	-316.8000	-6.4102
200.3564	-316.8000	-6.4095
200.4573	-316.8000	-6.4093
200.5572	-316.8000	-6.4109
200.6577	-316.8000	-6.4102
200.7574	-316.8000	-6.4096
200.8584	-316.8000	-6.4087
200.9591	-316.8000	-6.4093
201.0596	-316.8000	-6.4051
201.1592	-316.8000	-6.4046
201.2596	-316.8000	-6.4041
201.3591	-316.8000	-6.4046
201.4599	-316.8000	-6.4034
201.5593	-316.8000	-6.4041
201.6604	-316.8000	-6.4032
201.7616	-316.8000	-6.4027
201.8613	-316.8000	-6.4068
201.9613	-316.8000	-6.4069
202.0625	-316.8000	-6.4053
202.1633	-316.8000	-6.4054
202.2633	-316.8000	-6.4063
202.3634	-316.8000	-6.4079
202.4637	-316.8000	-6.4032
202.5638	-316.8000	-6.4060
202.6633	-316.8000	-6.4042
202.7634	-316.8000	-6.4038
202.8633	-316.8000	-6.4064
202.9638	-316.8000	-6.4037
203.0633	-316.8000	-6.4046
203.1639	-316.8000	-6.4026
203.2637	-316.8000	-6.4046
203.3638	-316.8000	-6.4023
203.4635	-316.8000	-6.4006
203.5635	-316.8000	-6.4036
203.6636	-316.8000	-6.4039
203.7639	-316.8000	-6.4002
203.8635	-316.8000	-6.4013
203.9635	-316.8000	-6.4037
204.0647	-316.8000	-6.4040
204.1651	-316.8000	-6.4066
204.2661	-316.8000	-6.4058
204.3661	-316.8000	-6.4075
204.4669	-316.8000	-6.4099
204.5663	-316.8000	-6.4012
204.6672	-316.8000	-6.4036
204.7675	-316.8000	-6.4068
204.8677	-316.8000	-6.4014
204.9675	-316.8000	-6.4035
205.0680	-316.8000	-6.4045
205.1689	-316.8000	-6.4057
205.2684	-316.8000	-6.4053
205.3687	-316.8000	-6.4040
205.4688	-316.8000	-6.4060
205.5683	-316.8000	-6.4074
205.6682	-316.8000	-6.4014
205.7688	-316.8000	-6.4038
205.8685	-316.8000	-6.4052
205.9689	-316.8000	-6.4019
206.0687	-316.8000	-6.4017
206.1687	-316.8000	-6.4029
206.2694	-316.8000	-6.4000
206.3695	-316.8000	-6.4030
206.4700	-316.8000	-6.4064
206.5693	-316.8000	-6.4030
206.6692	-316.8000	-6.3998
206.7695	-316.8000	-6.4025
206.8692	-316.8000	-6.4018
206.9694	-316.8000	-6.3992
207.0704	-316.8000	-6.3990
207.1702	-316.8000	-6.4015
207.2716	-316.8000	-6.4005
207.3724	-316.8000	-6.4010
207.4729	-316.8000	-6.4022
207.5734	-316.8000	-6.4036
207.6732	-316.8000	-6.4027
207.7747	-316.8000	-6.4062
207.8753	-316.8000	-6.4014
207.9753	-316.8000	-6.4061
208.0772	-316.8000	-6.4018
208.1777	-316.8000	-6.4044
208.2772	-316.8000	-6.4046
208.3785	-316.8000	-6.4035
208.4794	-316.8000	-6.4032
208.5797	-316.8000	-6.4084
208.6793	-316.8000	-6.4045
208.7799	-316.8000	-6.4032
208.8792	-316.8000	-6.4045
208.9801	-316.8000	-6.4020
209.0794	-316.8000	-6.4036
209.1796	-316.8000	-6.4030
209.2801	-316.8000	-6.4023
209.3797	-316.8000	-6.4034
209.4794	-316.8000	-6.4044
209.5807	-316.8000	-6.4041
209.6817	-316.8000	-6.4030
209.7814	-316.8000	-6.4025
209.8814	-316.8000	-6.4050
209.9816	-316.8000	-6.4010
210.0815	-316.8000	-6.4034
210.1813	-316.8000	-6.4013
210.2820	-316.8000	-6.4018
210.3814	-316.8000	-6.4012
210.4831	-316.8000	-6.4030
210.5828	-316.8000	-6.4032
210.6822	-316.8000	-6.3999
210.7829	-316.8000	-6.3990
210.8833	-316.8000	-6.4008
210.9835	-316.8000	-6.3994
211.0835	-316.8000	-6.4018
211.1836	-316.8000	-6.3974
211.2838	-316.8000	-6.4000
211.3835	-316.8000	-6.4017
211.4838	-316.8000	-6.3982
211.5837	-316.8000	-6.3978
211.6834	-316.8000	-6.4009
211.7835	-316.8000	-6.3969
211.8838	-316.8000	-6.3988
211.9841	-316.8000	-6.3984
212.0833	-316.8000	-6.3960
212.1839	-316.8000	-6.3999
212.2835	-316.8000	-6.4008
212.3834	-316.8000	-6.4012
212.4852	-316.8000	-6.3995
212.5849	-316.8000	-6.4004
212.6859	-316.8000	-6.4001
212.7857	-316.8000	-6.4001
212.8863	-316.8000	-6.3993
212.9872	-316.8000	-6.3999
213.0880	-316.8000	-6.3980
213.1879	-316.8000	-6.3996
213.2878	-316.8000	-6.4010
213.3874	-316.8000	-6.3971
213.4881	-316.8000	-6.3983
213.5877	-316.8000	-6.3988
213.6886	-316.8000	-6.3977
213.7884	-316.8000	-6.3990
213.8895	-316.8000	-6.4014
213.9895	-316.8000	-6.4001
214.0892	-316.8000	-6.3990
214.1904	-316.8000	-6.3969
214.2905	-316.8000	-6.3974
214.3907	-316.8000	-6.3962
214.4903	-316.8000	-6.3954
214.5913	-316.8000	-6.3956
214.6916	-316.8000	-6.3956
214.7912	-316.8000	-6.3972
214.8916	-316.8000	-6.3942
214.9924	-316.8000	-6.3973
215.0933	-316.8000	-6.3971
215.1933	-316.8000	-6.3934
215.2946	-316.8000	-6.3952
215.3952	-316.8000	-6.3909
215.4963	-316.8000	-6.3997
215.5963	-316.8000	-6.3934
215.6971	-316.8000	-6.3989
215.7966	-316.8000	-6.3936
215.8975	-316.8000	-6.3960
215.9994	-316.8000	-6.3899
216.0990	-316.8000	-6.3935
216.1983	-316.8000	-6.3944
216.2984	-316.8000	-6.3956
216.3995	-316.8000	-6.3951
216.4998	-316.8000	-6.3913
216.5995	-316.8000	-6.3969
216.6994	-316.8000	-6.3974
216.7996	-316.8000	-6.3950
216.8999	-316.8000	-6.3966
216.9994	-316.8000	-6.3946
217.1002	-316.8000	-6.3929
217.2001	-316.8000	-6.3939
217.2999	-316.8000	-6.3972
217.3995	-316.8000	-6.3936
217.4993	-316.8000	-6.3968
217.6002	-316.8000	-6.3951
217.7004	-316.8000	-6.3926
217.8005	-316.8000	-6.3932
217.9009	-316.8000	-6.3914
218.0004	-316.8000	-6.3922
218.1007	-316.8000	-6.3925
218.2008	-316.8000	-6.3917
218.3017	-316.8000	-6.3922
218.4015	-316.8000	-6.3915
218.5013	-316.8000	-6.3929
218.6016	-316.8000	-6.3925
218.7016	-316.8000	-6.3911
218.8023	-316.8000	-6.3916
218.9026	-316.8000	-6.3927
219.0024	-316.8000	-6.3956
219.1030	-316.8000	-6.3954
219.2023	-316.8000	-6.3935
219.3033	-316.8000	-6.3969
219.4040	-316.8000	-6.3922
219.5040	-316.8000	-6.3944
219.6034	-316.8000	-6.3933
219.7046	-316.8000	-6.3955
219.8045	-316.8000	-6.3959
219.9046	-316.8000	-6.3926
220.0053	-316.8000	-6.3926
220.1055	-316.8000	-6.3928
220.2058	-316.8000	-6.3935
220.3055	-316.8000	-6.3914
220.4057	-316.8000	-6.3929
220.5053	-316.8000	-6.3934
220.6054	-316.8000	-6.3924
220.7061	-316.8000	-6.3889
220.8055	-316.8000	-6.3890
220.9072	-316.8000	-6.3915
221.0081	-316.8000	-6.3903
221.1078	-316.8000	-6.3930
221.2075	-316.8000	-6.3928
221.3084	-316.8000	-6.3919
221.4084	-316.8000	-6.3920
221.5093	-316.8000	-6.3927
221.6085	-316.8000	-6.3918
221.7087	-316.8000	-6.3915
221.8092	-316.8000	-6.3901
221.9086	-316.8000	-6.3910
222.0096	-316.8000	-6.3925
222.1095	-316.8000	-6.3923
222.2095	-316.8000	-6.3895
222.3096	-316.8000	-6.3897
222.4104	-316.8000	-6.3908
222.5123	-316.8000	-6.3911
222.6115	-316.8000	-6.3911
222.7114	-316.8000	-6.3915
222.8122	-316.8000	-6.3904
222.9126	-316.8000	-6.3891
223.0139	-316.8000	-6.3904
223.1133	-316.8000	-6.3895
223.2136	-316.8000	-6.3896
223.3137	-316.8000	-6.3899
223.4138	-316.8000	-6.3904
223.5134	-316.8000	-6.3887
223.6135	-316.8000	-6.3917
223.7140	-316.8000	-6.3871
223.8137	-316.8000	-6.3896
223.9133	-316.8000	-6.3877
224.0141	-316.8000	-6.3856
224.1138	-316.8000	-6.3883
224.2137	-316.8000	-6.3878
224.3139	-316.8000	-6.3916
224.4139	-316.8000	-6.3895
224.5140	-316.8000	-6.3887
224.6136	-316.8000	-6.3905
224.7139	-316.8000	-6.3909
224.8138	-316.8000	-6.3911
224.9140	-316.8000	-6.3878
225.0139	-316.8000	-6.3862
225.1140	-316.8000	-6.3869
225.2148	-316.8000	-6.3844
225.3148	-316.8000	-6.3889
225.4152	-316.8000	-6.3903
225.5146	-316.8000	-6.3902
225.6150	-316.8000	-6.3910
225.7148	-316.8000	-6.3899
225.8152	-316.8000	-6.3914
225.9155	-316.8000	-6.3887
226.0156	-316.8000	-6.3883
226.1171	-316.8000	-6.3876
226.2167	-316.8000	-6.3880
226.3164	-316.8000	-6.3854
226.4165	-316.8000	-6.3876
226.5165	-316.8000	-6.3860
226.6169	-316.8000	-6.3860
226.7171	-316.8000	-6.3871
226.8171	-316.8000	-6.3878
226.9165	-316.8000	-6.3847
227.0169	-316.8000	-6.3864
227.1173	-316.8000	-6.3873
227.2179	-316.8000	-6.3849
227.3182	-316.8000	-6.3874
227.4175	-316.8000	-6.3910
227.5182	-316.8000	-6.3872
227.6176	-316.8000	-6.3883
227.7177	-316.8000	-6.3871
227.8175	-316.8000	-6.3877
227.9195	-316.8000	-6.3879
228.0186	-316.8000	-6.3878
228.1200	-316.8000	-6.3897
228.2202	-316.8000	-6.3877
228.3199	-316.8000	-6.3843
228.4195	-316.8000	-6.3883
228.5195	-316.8000	-6.3864
228.6198	-316.8000	-6.3868
228.7194	-316.8000	-6.3870
228.8198	-316.8000	-6.3877
228.9195	-316.8000	-6.3887
229.0204	-316.8000	-6.3882
229.1209	-316.8000	-6.3892
229.2214	-316.8000	-6.3890
229.3215	-316.8000	-6.3914
229.4214	-316.8000	-6.3851
229.5217	-316.8000	-6.3878
229.6220	-316.8000	-6.3889
229.7216	-316.8000	-6.3843
229.8224	-316.8000	-6.3868
229.9231	-316.8000	-6.3837
230.0230	-316.8000	-6.3880
230.1224	-316.8000	-6.3867
230.2232	-316.8000	-6.3868
230.3225	-316.8000	-6.3902
230.4230	-316.8000	-6.3873
230.5235	-316.8000	-6.3858
230.6242	-316.8000	-6.3846
230.7238	-316.8000	-6.3875
230.8237	-316.8000	-6.3844
230.9241	-316.8000	-6.3841
231.0239	-316.8000	-6.3833
231.1234	-316.8000	-6.3889
231.2235	-316.8000	-6.3879
231.3240	-316.8000	-6.3860
231.4241	-316.8000	-6.3853
231.5239	-316.8000	-6.3862
231.6236	-316.8000	-6.3852
231.7238	-316.8000	-6.3838
231.8242	-316.8000	-6.3849
231.9246	-316.8000	-6.3849
232.0251	-316.8000	-6.3825
232.1253	-316.8000	-6.3853
232.2244	-316.8000	-6.3871
232.3249	-316.8000	-6.3846
232.4256	-316.8000	-6.3854
232.5257	-316.8000	-6.3826
232.6256	-316.8000	-6.3845
232.7259	-316.8000	-6.3825
232.8262	-316.8000	-6.3805
232.9277	-316.8000	-6.3830
233.0273	-316.8000	-6.3844
233.1273	-316.8000	-6.3847
233.2265	-316.8000	-6.3853
233.3266	-316.8000	-6.3875
233.4274	-316.8000	-6.3882
233.5278	-316.8000	-6.3861
233.6285	-316.8000	-6.3859
233.7296	-316.8000	-6.3849
233.8298	-316.8000	-6.3816
233.9306	-316.8000	-6.3822
234.0315	-316.8000	-6.3830
234.1316	-316.8000	-6.3812
234.2317	-316.8000	-6.3834
234.3316	-316.8000	-6.3832
234.4318	-316.8000	-6.3799
234.5331	-316.8000	-6.3825
234.6324	-316.8000	-6.3789
234.7327	-316.8000	-6.3807
234.8337	-316.8000	-6.3823
234.9339	-316.8000	-6.3842
235.0334	-316.8000	-6.3794
235.1339	-316.8000	-6.3797
235.2336	-316.8000	-6.3800
235.3339	-316.8000	-6.3782
235.4345	-316.8000	-6.3807
235.5350	-316.8000	-6.3804
235.6355	-316.8000	-6.3784
235.7355	-316.8000	-6.3792
235.8355	-316.8000	-6.3797
235.9361	-316.8000	-6.3799
236.0361	-316.8000	-6.3787
236.1359	-316.8000	-6.3763
236.2376	-316.8000	-6.3779
236.3378	-316.8000	-6.3772
236.4383	-316.8000	-6.3778
236.5375	-316.8000	-6.3798
236.6382	-316.8000	-6.3815
236.7386	-316.8000	-6.3821
236.8393	-316.8000	-6.3796
236.9390	-316.8000	-6.3798
237.0388	-316.8000	-6.3793
237.1386	-316.8000	-6.3794
237.2393	-316.8000	-6.3788
237.3394	-316.8000	-6.3797
237.4390	-316.8000	-6.3800
237.5391	-316.8000	-6.3810
237.6403	-316.8000	-6.3774
237.7404	-316.8000	-6.3779
237.8412	-316.8000	-6.3774
237.9415	-316.8000	-6.3786
238.0418	-316.8000	-6.3801
238.1417	-316.8000	-6.3804
238.2418	-316.8000	-6.3801
238.3416	-316.8000	-6.3781
238.4417	-316.8000	-6.3782
238.5418	-316.8000	-6.3798
238.6417	-316.8000	-6.3766
238.7417	-316.8000	-6.3799
238.8419	-316.8000	-6.3773
238.9419	-316.8000	-6.3800
239.0418	-316.8000	-6.3798
239.1416	-316.8000	-6.3796
239.2422	-316.8000	-6.3788
239.3418	-316.8000	-6.3753
239.4419	-316.8000	-6.3740
239.5417	-316.8000	-6.3734
239.6432	-316.8000	-6.3741
239.7436	-316.8000	-6.3759
239.8441	-316.8000	-6.3765
239.9440	-316.8000	-6.3767
240.0442	-316.8000	-6.3766
240.1435	-316.8000	-6.3768
240.2440	-316.8000	-6.3761
240.3444	-316.8000	-6.3774
240.4437	-316.8000	-6.3762
240.5435	-316.8000	-6.3736
240.6435	-316.8000	-6.3752
240.7439	-316.8000	-6.3806
240.8436	-316.8000	-6.3755
240.9435	-316.8000	-6.3776
241.0436	-316.8000	-6.3735
241.1449	-316.8000	-6.3737
241.2448	-316.8000	-6.3721
241.3446	-316.8000	-6.3713
241.4451	-316.8000	-6.3706
241.5450	-316.8000	-6.3743
241.6446	-316.8000	-6.3743
241.7453	-316.8000	-6.3725
241.8453	-316.8000	-6.3765
241.9447	-316.8000	-6.3767
242.0451	-316.8000	-6.3749
242.1449	-316.8000	-6.3740
242.2446	-316.8000	-6.3723
242.3445	-316.8000	-6.3728
242.4446	-316.8000	-6.3731
242.5463	-316.8000	-6.3743
242.6461	-316.8000	-6.3738
242.7474	-316.8000	-6.3760
242.8475	-316.8000	-6.3758
242.9486	-316.8000	-6.3736
243.0487	-316.8000	-6.3757
243.1495	-316.8000	-6.3752
243.2512	-316.8000	-6.3767
243.3510	-316.8000	-6.3750
243.4510	-316.8000	-6.3754
243.5511	-316.8000	-6.3744
243.6516	-316.8000	-6.3720
243.7516	-316.8000	-6.3752
243.8518	-316.8000	-6.3710
243.9518	-316.8000	-6.3718
244.0516	-316.8000	-6.3731
244.1519	-316.8000	-6.3733
244.2516	-316.8000	-6.3754
244.3516	-316.8000	-6.3738
244.4518	-316.8000	-6.3734
244.5517	-316.8000	-6.3741
244.6519	-316.8000	-6.3701
244.7524	-316.8000	-6.3746
244.8518	-316.8000	-6.3721
244.9518	-316.8000	-6.3723
245.0516	-316.8000	-6.3732
245.1518	-316.8000	-6.3713
245.2518	-316.8000	-6.3710
245.3518	-316.8000	-6.3736
245.4518	-316.8000	-6.3696
245.5518	-316.8000	-6.3731
245.6522	-316.8000	-6.3704
245.7522	-316.8000	-6.3706
245.8518	-316.8000	-6.3714
245.9526	-316.8000	-6.3718
246.0537	-316.8000	-6.3746
246.1542	-316.8000	-6.3746
246.2537	-316.8000	-6.3716
246.3540	-316.8000	-6.3706
246.4539	-316.8000	-6.3719
246.5542	-316.8000	-6.3702
246.6553	-316.8000	-6.3703
246.7537	-316.8000	-6.3713
246.8536	-316.8000	-6.3715
246.9555	-316.8000	-6.3733
247.0560	-316.8000	-6.3743
247.1568	-316.8000	-6.3704
247.2566	-316.8000	-6.3713
247.3566	-316.8000	-6.3703
247.4572	-316.8000	-6.3697
247.5569	-316.8000	-6.3703
247.6578	-316.8000	-6.3722
247.7577	-316.8000	-6.3696
247.8594	-316.8000	-6.3690
247.9587	-316.8000	-6.3697
248.0585	-316.8000	-6.3681
248.1585	-316.8000	-6.3697
248.2588	-316.8000	-6.3719
248.3590	-316.8000	-6.3718
248.4587	-316.8000	-6.3678
248.5605	-316.8000	-6.3684
248.6608	-316.8000	-6.3750
248.7608	-316.8000	-6.3716
248.8606	-316.8000	-6.3689
248.9611	-316.8000	-6.3754
249.0606	-316.8000	-6.3701
249.1605	-316.8000	-6.3711
249.2618	-316.8000	-6.3743
249.3631	-316.8000	-6.3686
249.4630	-316.8000	-6.3716
249.5629	-316.8000	-6.3687
249.6635	-316.8000	-6.3701
249.7639	-316.8000	-6.3704
249.8638	-316.8000	-6.3669
249.9637	-316.8000	-6.3660
250.0642	-316.8000	-6.3670
250.1641	-316.8000	-6.3674
250.2637	-316.8000	-6.3681
250.3641	-316.8000	-6.3707
250.4640	-316.8000	-6.3725
250.5642	-316.8000	-6.3726
250.6639	-316.8000	-6.3724
250.7643	-316.8000	-6.3673
250.8642	-316.8000	-6.3678
250.9642	-316.8000	-6.3705
251.0642	-316.8000	-6.3697
251.1639	-316.8000	-6.3673
251.2642	-316.8000	-6.3739
251.3640	-316.8000	-6.3664
251.4640	-316.8000	-6.3664
251.5642	-316.8000	-6.3730
251.6642	-316.8000	-6.3694
251.7642	-316.8000	-6.3698
251.8638	-316.8000	-6.3697
251.9641	-316.8000	-6.3703
252.0637	-316.8000	-6.3707
252.1647	-316.8000	-6.3733
252.2651	-316.8000	-6.3688
252.3653	-316.8000	-6.3696
252.4658	-316.8000	-6.3674
252.5656	-316.8000	-6.3672
252.6656	-316.8000	-6.3694
252.7659	-316.8000	-6.3648
252.8658	-316.8000	-6.3674
252.9666	-316.8000	-6.3699
253.0666	-316.8000	-6.3659
253.1680	-316.8000	-6.3704
253.2682	-316.8000	-6.3672
253.3681	-316.8000	-6.3671
253.4687	-316.8000	-6.3654
253.5697	-316.8000	-6.3621
253.6697	-316.8000	-6.3675
253.7698	-316.8000	-6.3679
253.8696	-316.8000	-6.3673
253.9705	-316.8000	-6.3711
254.0700	-316.8000	-6.3681
254.1697	-316.8000	-6.3657
254.2705	-316.8000	-6.3644
254.3706	-316.8000	-6.3664
254.4716	-316.8000	-6.3679
254.5707	-316.8000	-6.3719
254.6712	-316.8000	-6.3678
254.7713	-316.8000	-6.3703
254.8708	-316.8000	-6.3678
254.9708	-316.8000	-6.3621
255.0710	-316.8000	-6.3712
255.1711	-316.8000	-6.3617
255.2722	-316.8000	-6.3649
255.3716	-316.8000	-6.3664
255.4719	-316.8000	-6.3644
255.5720	-316.8000	-6.3644
255.6716	-316.8000	-6.3648
255.7723	-316.8000	-6.3675
255.8717	-316.8000	-6.3627
255.9719	-316.8000	-6.3660
256.0716	-316.8000	-6.3648
256.1725	-316.8000	-6.3659
256.2724	-316.8000	-6.3666
256.3719	-316.8000	-6.3680
256.4719	-316.8000	-6.3649
256.5722	-316.8000	-6.3666
256.6719	-316.8000	-6.3653
256.7719	-316.8000	-6.3619
256.8719	-316.8000	-6.3667
256.9720	-316.8000	-6.3648
257.0723	-316.8000	-6.3679
257.1720	-316.8000	-6.3668
257.2725	-316.8000	-6.3649
257.3722	-316.8000	-6.3669
257.4717	-316.8000	-6.3632
257.5720	-316.8000	-6.3637
257.6726	-316.8000	-6.3644
257.7734	-316.8000	-6.3637
257.8728	-316.8000	-6.3632
257.9736	-316.8000	-6.3626
258.0745	-316.8000	-6.3644
258.1738	-316.8000	-6.3615
258.2736	-316.8000	-6.3633
258.3739	-316.8000	-6.3621
258.4741	-316.8000	-6.3649
258.5749	-316.8000	-6.3641
258.6748	-316.8000	-6.3638
258.7752	-316.8000	-6.3613
258.8756	-316.8000	-6.3637
258.9749	-316.8000	-6.3653
259.0751	-316.8000	-6.3651
259.1746	-316.8000	-6.3636
259.2746	-316.8000	-6.3702
259.3766	-316.8000	-6.3631
259.4761	-316.8000	-6.3640
259.5757	-316.8000	-6.3644
259.6773	-316.8000	-6.3652
259.7776	-316.8000	-6.3649
259.8779	-316.8000	-6.3653
259.9788	-316.8000	-6.3632
260.0797	-316.8000	-6.3615
260.1798	-316.8000	-6.3637
260.2803	-316.8000	-6.3640
260.3812	-316.8000	-6.3624
260.4812	-316.8000	-6.3617
260.5814	-316.8000	-6.3600
260.6808	-316.8000	-6.3618
260.7822	-316.8000	-6.3607
260.8820	-316.8000	-6.3608
260.9818	-316.8000	-6.3598
261.0832	-316.8000	-6.3588
261.1840	-316.8000	-6.3633
261.2841	-316.8000	-6.3591
261.3841	-316.8000	-6.3628
261.4838	-316.8000	-6.3610
261.5837	-316.8000	-6.3624
261.6842	-316.8000	-6.3631
261.7854	-316.8000	-6.3593
261.8869	-316.8000	-6.3582
261.9876	-316.8000	-6.3573
262.0872	-316.8000	-6.3596
262.1869	-316.8000	-6.3591
262.2878	-316.8000	-6.3598
262.3883	-316.8000	-6.3600
262.4880	-316.8000	-6.3587
262.5878	-316.8000	-6.3596
262.6886	-316.8000	-6.3585
262.7886	-316.8000	-6.3580
262.8878	-316.8000	-6.3587
262.9887	-316.8000	-6.3587
263.0893	-316.8000	-6.3646
263.1896	-316.8000	-6.3610
263.2906	-316.8000	-6.3606
263.3900	-316.8000	-6.3611
263.4902	-316.8000	-6.3596
263.5898	-316.8000	-6.3617
263.6898	-316.8000	-6.3580
263.7903	-316.8000	-6.3583
263.8905	-316.8000	-6.3597
263.9904	-316.8000	-6.3605
264.0902	-316.8000	-6.3609
264.1897	-316.8000	-6.3612
264.2897	-316.8000	-6.3602
264.3901	-316.8000	-6.3601
264.4900	-316.8000	-6.3616
264.5903	-316.8000	-6.3611
264.6914	-316.8000	-6.3630
264.7911	-316.8000	-6.3589
264.8912	-316.8000	-6.3593
264.9909	-316.8000	-6.3578
265.0909	-316.8000	-6.3597
265.1908	-316.8000	-6.3615
265.2921	-316.8000	-6.3595
265.3920	-316.8000	-6.3602
265.4920	-316.8000	-6.3569
265.5920	-316.8000	-6.3559
265.6920	-316.8000	-6.3601
265.7929	-316.8000	-6.3581
265.8928	-316.8000	-6.3568
265.9932	-316.8000	-6.3580
266.0927	-316.8000	-6.3577
266.1941	-316.8000	-6.3595
266.2944	-316.8000	-6.3591
266.3941	-316.8000	-6.3599
266.4940	-316.8000	-6.3593
266.5938	-316.8000	-6.3560
266.6944	-316.8000	-6.3575
266.7937	-316.8000	-6.3593
266.8943	-316.8000	-6.3588
266.9943	-316.8000	-6.3581
267.0941	-316.8000	-6.3570
267.1938	-316.8000	-6.3583
267.2940	-316.8000	-6.3579
267.3945	-316.8000	-6.3594
267.4942	-316.8000	-6.3594
267.5938	-316.8000	-6.3588
267.6937	-316.8000	-6.3582
267.7942	-316.8000	-6.3545
267.8942	-316.8000	-6.3584
267.9956	-316.8000	-6.3600
268.0948	-316.8000	-6.3582
268.1949	-316.8000	-6.3578
268.2962	-316.8000	-6.3578
268.3977	-316.8000	-6.3574
268.4977	-316.8000	-6.3576
268.5983	-316.8000	-6.3560
268.6982	-316.8000	-6.3578
268.7991	-316.8000	-6.3599
268.8991	-316.8000	-6.3587
269.0004	-316.8000	-6.3573
269.0998	-316.8000	-6.3555
269.2008	-316.8000	-6.3539
269.3025	-316.8000	-6.3595
269.4022	-316.8000	-6.3579
269.5019	-316.8000	-6.3576
269.6021	-316.8000	-6.3541
269.7033	-316.8000	-6.3553
269.8034	-316.8000	-6.3553
269.9028	-316.8000	-6.3573
270.0037	-316.8000	-6.3596
270.1030	-316.8000	-6.3519
270.2038	-316.8000	-6.3551
270.3041	-316.8000	-6.3575
270.4044	-316.8000	-6.3535
270.5041	-316.8000	-6.3566
270.6043	-316.8000	-6.3554
270.7044	-316.8000	-6.3553
270.8044	-316.8000	-6.3498
270.9043	-316.8000	-6.3540
271.0041	-316.8000	-6.3545
271.1043	-316.8000	-6.3532
271.2043	-316.8000	-6.3562
271.3042	-316.6350	-6.3546
271.4269	-316.2190	-6.3531
271.5270	-315.5690	-6.3543
271.6272	-314.8850	-6.3537
271.7278	-314.2360	-6.3528
271.8277	-313.5520	-6.3525
271.9281	-312.9020	-5.8255
272.0279	-312.2190	-4.4322
272.1278	-311.5690	-3.3202
272.2293	-310.8860	-2.4260
272.3287	-310.2020	-1.6775
272.4288	-309.5530	-1.0652
272.5289	-308.8690	-0.5560
272.6292	-308.2200	-0.1354
272.7289	-307.5360	0.2098
272.8288	-306.8860	0.4954
272.9290	-306.2030	0.7130
273.0295	-305.5540	0.8939
273.1289	-304.8700	1.0374
273.2296	-304.2210	1.1553
273.3294	-303.5370	1.2467
273.4292	-302.8880	1.3158
273.5289	-302.2040	1.3706
273.6292	-301.5550	1.4056
273.7291	-300.8710	1.4348
273.8292	-300.2220	1.4537
273.9306	-299.5370	1.4643
274.0301	-298.8880	1.4723
274.1299	-298.2020	1.4727
274.2306	-297.5190	1.4714
274.3298	-296.8690	1.4654
274.4300	-296.2200	1.4596
274.5298	-295.5370	1.4496
274.6301	-294.8870	1.4383
274.7302	-294.2040	1.4275
274.8302	-293.5540	1.4153
274.9305	-292.8700	1.4038
275.0304	-292.2210	1.3902
275.1316	-291.5350	1.3799
275.2314	-290.8510	1.3666
275.3319	-290.2020	1.3509
275.4319	-289.5180	1.3446
275.5318	-288.8690	1.3313
275.6329	-288.1850	1.3187
275.7330	-287.5020	1.3101
275.8328	-286.8520	1.2988
275.9339	-286.1690	1.2870
276.0351	-285.4850	1.2803
276.1354	-284.8360	1.2706
276.2349	-284.1860	1.2641
276.3359	-283.5000	1.2584
276.4366	-282.8510	1.2472
276.5367	-282.1670	1.2417
276.6362	-281.4840	1.2378
276.7358	-280.8340	1.2259
276.8373	-280.1510	1.2210
276.9369	-279.5010	1.2164
277.0368	-278.8170	1.2134
277.1368	-278.1680	1.2088
277.2379	-277.4850	1.1999
277.3387	-276.8350	1.1961
277.4391	-276.1520	1.1911
277.5393	-275.4680	1.1870
277.6391	-274.8190	1.1849
277.7402	-274.1350	1.1764
277.8406	-273.4850	1.1781
277.9404	-272.8020	1.1738
278.0399	-272.1520	1.1703
278.1401	-271.4690	1.1657
278.2407	-270.8190	1.1707
278.3408	-270.1360	1.1660
278.4409	-269.4520	1.1633
278.5424	-268.8030	1.1611
278.6422	-268.1190	1.1634
278.7420	-267.4700	1.1617
278.8422	-266.8320	1.1643
278.9421	-266.7990	1.1626
279.0423	-266.7990	1.1654
279.1420	-266.7990	1.1699
279.2435	-266.7990	1.1735
279.3434	-266.7990	1.1838
279.4443	-266.7990	1.1626
279.5450	-266.7990	1.1851
279.6448	-266.8000	1.1866
279.7456	-266.8000	1.1866
279.8458	-266.8000	1.1827
279.9460	-266.8000	1.1871
280.0471	-266.8000	1.1873
280.1474	-266.8000	1.1879
280.2469	-266.8000	1.1871
280.3472	-266.8000	1.1867
280.4473	-266.8000	1.1862
280.5478	-266.8000	1.1876
280.6480	-266.8000	1.1867
280.7478	-266.8000	1.1889
280.8486	-266.8000	1.1870
280.9483	-266.8000	1.1867
281.0480	-266.8000	1.1869
281.1483	-266.8000	1.1851
281.2483	-266.8000	1.1860
281.3490	-266.8000	1.1847
281.4494	-266.8000	1.1842
