4/12/2023 12:23:57 pm
Time(s)	Displacement(mm)	Force(N)
0.0000	-281.2420	1.0455
0.1435	-281.2420	1.0431
0.2432	-281.2420	1.0451
0.3450	-281.2420	1.0452
0.4447	-281.2420	1.0444
0.5445	-281.2420	1.0461
0.6446	-281.2420	1.0440
0.7455	-281.2420	1.0417
0.8459	-281.2420	1.0420
0.9455	-281.2420	1.0463
1.0469	-281.2420	1.0439
1.1467	-281.2420	1.0454
1.2464	-281.2420	1.0439
1.3467	-281.2420	1.0450
1.4467	-281.2420	1.0430
1.5463	-281.2420	1.0454
1.6468	-281.2420	1.0444
1.7470	-281.2420	1.0437
1.8489	-281.2420	1.0433
1.9482	-281.2420	1.0423
2.0480	-281.2420	1.0440
2.1484	-281.2420	1.0425
2.2481	-281.2420	1.0418
2.3486	-281.2420	1.0451
2.4480	-281.2420	1.0428
2.5500	-281.2420	1.0447
2.6491	-281.2420	1.0445
2.7505	-281.2420	1.0461
2.8501	-281.2420	1.0462
2.9507	-281.2420	1.0460
3.0511	-281.2420	1.0444
3.1515	-281.2420	1.0434
3.2510	-281.2420	1.0422
3.3516	-281.2420	1.0462
3.4521	-281.2420	1.0456
3.5537	-281.2420	1.0465
3.6535	-281.2420	1.0428
3.7540	-281.2420	1.0443
3.8532	-281.2420	1.0446
3.9532	-281.2420	1.0463
4.0532	-281.2420	1.0457
4.1533	-281.2420	1.0435
4.2544	-281.2420	1.0440
4.3541	-281.2420	1.0456
4.4559	-281.2420	1.0458
4.5564	-281.2420	1.0436
4.6561	-281.2420	1.0439
4.7579	-281.2420	1.0429
4.8582	-281.2420	1.0429
4.9588	-281.2420	1.0424
5.0591	-281.2420	1.0450
5.1606	-281.2420	1.0445
5.2606	-281.2420	1.0430
5.3613	-281.2420	1.0449
5.4614	-281.2420	1.0488
5.5615	-281.2420	1.0423
5.6616	-281.2420	1.0418
5.7619	-281.2420	1.0420
5.8622	-281.2420	1.0426
5.9628	-281.2420	1.0467
6.0629	-281.2420	1.0428
6.1629	-281.2420	1.0444
6.2621	-281.2420	1.0436
6.3628	-281.2420	1.0479
6.4637	-281.2420	1.0455
6.5633	-281.2420	1.0437
6.6649	-281.2420	1.0465
6.7643	-281.2420	1.0492
6.8647	-281.2420	1.0508
6.9644	-281.2420	1.0453
7.0651	-281.2420	1.0458
7.1653	-281.2420	1.0442
7.2659	-281.2420	1.0413
7.3656	-281.2420	1.0471
7.4651	-281.2420	1.0437
7.5661	-281.2420	1.0445
7.6662	-281.2420	1.0433
7.7675	-281.2420	1.0484
7.8672	-281.2420	1.0423
7.9680	-281.2420	1.0412
8.0679	-281.2420	1.0456
8.1675	-281.2420	1.0424
8.2673	-281.2420	1.0457
8.3678	-281.2420	1.0439
8.4691	-281.2420	1.0432
8.5682	-281.2420	1.0456
8.6684	-281.2420	1.0474
8.7681	-281.2420	1.0470
8.8709	-281.2420	1.0458
8.9706	-281.2420	1.0448
9.0708	-281.2420	1.0461
9.1719	-281.2420	1.0479
9.2729	-281.2420	1.0450
9.3724	-281.2420	1.0488
9.4722	-281.2420	1.0507
9.5729	-281.2420	1.0496
9.6726	-281.2420	1.0475
9.7727	-281.2420	1.0501
9.8725	-281.2420	1.0511
9.9724	-281.2420	1.0488
10.0731	-281.2420	1.0494
10.1729	-281.2420	1.0436
10.2722	-281.2420	1.0485
10.3728	-281.2420	1.0455
10.4733	-281.2420	1.0508
10.5733	-281.2420	1.0474
10.6741	-281.2420	1.0440
10.7732	-281.2420	1.0491
10.8733	-281.2420	1.0470
10.9738	-281.2420	1.0507
11.0739	-281.2420	1.0524
11.1740	-281.2420	1.0499
11.2740	-281.2420	1.0479
11.3734	-281.2420	1.0488
11.4749	-281.2420	1.0495
11.5753	-281.2420	1.0497
11.6766	-281.2420	1.0527
11.7767	-281.2420	1.0509
11.8772	-281.2420	1.0491
11.9775	-281.2420	1.0476
12.0772	-281.2420	1.0470
12.1782	-281.2420	1.0457
12.2784	-281.2420	1.0494
12.3786	-281.2420	1.0483
12.4794	-281.2420	1.0479
12.5792	-281.2420	1.0469
12.6799	-281.2420	1.0492
12.7796	-281.2420	1.0506
12.8794	-281.2420	1.0526
12.9811	-281.2420	1.0512
13.0808	-281.2420	1.0496
13.1805	-281.2420	1.0475
13.2803	-281.2420	1.0434
13.3810	-281.2420	1.0503
13.4807	-281.2420	1.0492
13.5805	-281.2420	1.0500
13.6802	-281.2420	1.0526
13.7804	-281.2420	1.0474
13.8806	-281.2420	1.0490
13.9823	-281.2420	1.0461
14.0826	-281.2420	1.0499
14.1827	-281.0970	1.0604
14.3060	-281.0000	1.0403
14.4056	-280.9990	1.0524
14.5053	-280.9990	1.0540
14.6052	-280.9990	1.0506
14.7059	-280.9990	1.0561
14.8068	-280.9990	1.0550
14.9075	-280.9990	1.0580
15.0088	-280.9990	1.0573
15.1090	-280.9990	1.0533
15.2082	-280.9990	1.0515
15.3085	-281.0000	1.0526
15.4087	-281.0000	1.0540
15.5099	-281.0000	1.0564
15.6100	-281.0000	1.0559
15.7099	-281.0000	1.0522
15.8092	-281.0000	1.0547
15.9092	-281.0000	1.0544
16.0099	-281.0000	1.0527
16.1104	-281.0000	1.0541
16.2115	-281.0000	1.0590
16.3117	-281.0000	1.0543
16.4117	-281.0000	1.0531
16.5122	-281.0000	1.0530
16.6132	-281.0000	1.0536
16.7133	-281.0000	1.0548
16.8139	-281.0000	1.0552
16.9133	-281.0000	1.0571
17.0134	-281.0000	1.0557
17.1137	-281.0000	1.0566
17.2136	-281.0000	1.0560
17.3140	-281.0000	1.0525
17.4134	-281.0000	1.0533
17.5141	-281.0000	1.0565
17.6133	-281.0000	1.0534
17.7136	-281.0000	1.0531
17.8136	-281.0000	1.0542
17.9147	-281.0000	1.0561
18.0149	-281.0000	1.0560
18.1146	-281.0000	1.0533
18.2160	-281.0000	1.0543
18.3169	-281.0000	1.0543
18.4164	-281.0000	1.0583
18.5173	-281.0000	1.0598
18.6180	-281.0000	1.0613
18.7189	-281.0000	1.0587
18.8186	-281.0000	1.0574
18.9184	-281.0000	1.0578
19.0185	-281.0000	1.0567
19.1184	-281.0000	1.0607
19.2185	-281.0000	1.0616
19.3184	-281.0000	1.0628
19.4184	-281.0000	1.0605
19.5187	-281.0000	1.0603
19.6185	-281.0000	1.0605
19.7192	-281.0000	1.0570
19.8184	-281.0000	1.0544
19.9198	-281.0000	1.0581
20.0205	-281.0000	1.0611
20.1207	-281.0000	1.0591
20.2205	-281.0000	1.0593
20.3213	-281.0000	1.0554
20.4213	-281.0000	1.0562
20.5221	-281.0000	1.0587
20.6215	-281.0000	1.0563
20.7230	-281.0000	1.0590
20.8240	-281.0000	1.0602
20.9240	-281.0000	1.0592
21.0244	-281.0000	1.0587
21.1245	-281.0000	1.0553
21.2254	-281.0000	1.0574
21.3258	-281.0000	1.0615
21.4261	-281.0000	1.0618
21.5255	-281.0000	1.0628
21.6261	-281.0000	1.0618
21.7259	-281.0000	1.0630
21.8270	-281.0000	1.0600
21.9265	-281.0000	1.0582
22.0272	-281.0000	1.0586
22.1268	-281.0000	1.0579
22.2271	-281.0000	1.0600
22.3264	-281.0000	1.0608
22.4273	-281.0000	1.0615
22.5278	-281.0000	1.0642
22.6281	-281.0000	1.0608
22.7295	-281.0000	1.0624
22.8300	-281.0000	1.0602
22.9293	-281.0000	1.0611
23.0297	-281.0000	1.0611
23.1305	-281.0000	1.0582
23.2307	-281.0000	1.0600
23.3323	-281.0000	1.0600
23.4341	-281.0000	1.0617
23.5334	-281.0000	1.0633
23.6341	-281.0000	1.0648
23.7343	-281.0000	1.0615
23.8336	-281.0000	1.0609
23.9341	-281.0000	1.0594
24.0347	-281.0000	1.0600
24.1347	-281.0000	1.0616
24.2350	-281.0000	1.0625
24.3347	-281.0000	1.0635
24.4348	-281.0000	1.0622
24.5343	-281.0000	1.0629
24.6352	-281.0000	1.0586
24.7348	-281.0000	1.0591
24.8348	-281.0000	1.0606
24.9345	-281.0000	1.0630
25.0353	-281.0000	1.0654
25.1372	-281.0000	1.0613
25.2368	-281.0000	1.0614
25.3367	-281.0000	1.0601
25.4364	-281.0000	1.0637
25.5381	-281.0000	1.0625
25.6376	-281.0000	1.0620
25.7376	-281.0000	1.0603
25.8382	-281.0000	1.0608
25.9384	-281.0000	1.0590
26.0393	-281.0000	1.0614
26.1385	-281.0000	1.0614
26.2387	-281.0000	1.0631
26.3385	-281.0000	1.0628
26.4385	-281.0000	1.0622
26.5388	-281.0000	1.0597
26.6386	-281.0000	1.0624
26.7386	-281.0000	1.0586
26.8386	-281.0000	1.0605
26.9386	-281.0000	1.0642
27.0391	-281.0000	1.0644
27.1386	-281.0000	1.0628
27.2392	-281.0000	1.0627
27.3394	-281.0000	1.0586
27.4396	-281.0000	1.0572
27.5393	-281.0000	1.0614
27.6410	-281.0000	1.0619
27.7405	-281.0000	1.0632
27.8408	-281.0000	1.0628
27.9420	-281.0000	1.0578
28.0417	-281.0000	1.0586
28.1418	-281.0000	1.0585
28.2422	-281.0000	1.0625
28.3433	-281.0000	1.0618
28.4438	-281.0000	1.0579
28.5453	-281.0000	1.0589
28.6460	-281.0000	1.0632
28.7473	-281.0000	1.0640
28.8481	-281.0000	1.0618
28.9489	-281.0000	1.0605
29.0501	-281.0000	1.0615
29.1497	-281.0000	1.0624
29.2495	-281.0000	1.0629
29.3502	-281.0000	1.0638
29.4495	-281.0000	1.0623
29.5501	-281.0000	1.0632
29.6494	-281.0000	1.0628
29.7501	-281.0000	1.0629
29.8502	-281.0000	1.0619
29.9495	-281.0000	1.0644
30.0504	-281.0000	1.0638
30.1502	-281.0000	1.0628
30.2497	-281.0000	1.0619
30.3498	-281.0000	1.0633
30.4495	-281.0000	1.0627
30.5518	-281.0000	1.0646
30.6505	-281.0000	1.0629
30.7512	-281.0000	1.0619
30.8514	-281.0000	1.0592
30.9522	-281.0000	1.0612
31.0520	-281.0000	1.0650
31.1529	-281.0000	1.0663
31.2535	-281.0000	1.0663
31.3541	-281.0000	1.0660
31.4544	-281.0000	1.0629
31.5562	-281.0000	1.0590
31.6580	-281.0000	1.0611
31.7583	-281.0000	1.0647
31.8592	-281.0000	1.0650
31.9592	-281.0000	1.0639
32.0587	-281.0000	1.0611
32.1603	-281.0000	1.0578
32.2612	-281.0000	1.0593
32.3618	-281.0000	1.0607
32.4618	-281.0000	1.0613
32.5617	-281.0000	1.0634
32.6631	-281.0000	1.0626
32.7628	-281.0000	1.0648
32.8639	-281.0000	1.0633
32.9642	-281.0000	1.0643
33.0646	-281.0000	1.0638
33.1646	-281.0000	1.0606
33.2646	-281.0000	1.0614
33.3654	-281.0000	1.0620
33.4655	-281.0000	1.0661
33.5659	-281.0000	1.0633
33.6662	-281.0000	1.0670
33.7660	-281.0000	1.0647
33.8659	-281.0000	1.0595
33.9660	-281.0000	1.0617
34.0661	-281.0000	1.0633
34.1656	-281.0000	1.0673
34.2654	-281.0000	1.0660
34.3656	-281.0000	1.0674
34.4665	-281.0000	1.0675
34.5674	-281.0000	1.0629
34.6682	-281.0000	1.0627
34.7685	-281.0000	1.0655
34.8687	-281.0000	1.0646
34.9693	-281.0000	1.0645
35.0688	-281.0000	1.0641
35.1686	-281.0000	1.0648
35.2695	-281.0000	1.0649
35.3697	-281.0000	1.0695
35.4712	-281.0000	1.0675
35.5708	-281.0000	1.0687
35.6712	-281.0000	1.0714
35.7708	-281.0000	1.0706
35.8708	-281.0000	1.0657
35.9707	-281.0000	1.0655
36.0719	-281.0000	1.0643
36.1716	-281.0000	1.0659
36.2725	-281.0000	1.0673
36.3729	-281.0000	1.0705
36.4744	-281.0000	1.0723
36.5738	-281.0000	1.0722
36.6746	-281.0000	1.0681
36.7746	-281.0000	1.0644
36.8756	-281.0000	1.0628
36.9763	-281.0000	1.0634
37.0761	-281.0000	1.0647
37.1755	-281.0000	1.0676
37.2763	-281.0000	1.0644
37.3764	-281.0000	1.0660
37.4763	-281.0000	1.0640
37.5764	-281.0000	1.0632
37.6763	-281.0000	1.0626
37.7765	-281.0000	1.0651
37.8759	-281.0000	1.0642
37.9762	-281.0000	1.0647
38.0755	-281.0000	1.0643
38.1763	-280.9760	1.0643
38.2773	-280.7730	1.0702
38.3784	-280.5680	1.0707
38.4781	-280.3620	1.0719
38.5793	-280.1670	1.0746
38.6788	-279.9610	1.0753
38.7794	-279.7670	1.0801
38.8789	-279.5620	1.0798
38.9802	-279.3560	1.0854
39.0804	-279.1620	1.0905
39.1800	-278.9570	1.0933
39.2807	-278.7620	1.0996
39.3823	-278.5570	1.1003
39.4818	-278.3620	1.1028
39.5819	-278.1570	1.1054
39.6817	-277.9620	1.1083
39.7833	-277.7570	1.1108
39.8837	-277.5510	1.1181
39.9844	-277.3570	1.1221
40.0836	-277.1520	1.1265
40.1839	-276.9570	1.1292
40.2854	-276.7520	1.1320
40.3853	-276.5470	1.1331
40.4848	-276.3520	1.1375
40.5847	-276.1580	1.1394
40.6847	-275.9520	1.1432
40.7853	-275.7470	1.1463
40.8852	-275.5530	1.1465
40.9846	-275.3350	1.1491
41.0854	-274.4930	1.1747
41.1854	-273.4660	1.1746
41.2850	-272.4920	1.1903
41.3845	-271.4660	1.2108
41.4853	-270.4920	1.2304
41.5850	-269.4670	1.2479
41.6856	-268.4930	1.2610
41.7857	-267.4680	1.2784
41.8866	-266.4430	1.2930
41.9868	-265.4680	1.3073
42.0869	-264.4430	1.3234
42.1872	-263.4690	1.3399
42.2870	-262.4430	1.3528
42.3886	-261.4690	1.3596
42.4886	-260.4440	1.3619
42.5886	-259.4700	1.3587
42.6893	-258.4440	1.3586
42.7903	-257.4190	1.3597
42.8897	-256.4440	1.3631
42.9904	-255.4190	1.3645
43.0905	-254.4450	1.3690
43.1900	-253.4200	1.3679
43.2899	-252.4460	1.3736
43.3900	-251.4210	1.3738
43.4905	-250.4460	1.3766
43.5904	-249.4210	1.3776
43.6915	-248.4470	1.3772
43.7907	-247.4210	1.3778
43.8907	-246.4470	1.3776
43.9909	-245.4220	1.3743
44.0913	-244.4480	1.3750
44.1910	-243.4220	1.3749
44.2910	-242.4480	1.3739
44.3910	-241.4230	1.3734
44.4907	-240.4490	1.3764
44.5909	-239.4230	1.3722
44.6906	-238.4490	1.3735
44.7917	-237.4240	1.3737
44.8919	-236.6030	1.3726
44.9921	-236.5680	1.3480
45.0936	-236.5680	1.3734
45.1944	-236.5680	1.3748
45.2941	-236.5680	1.3717
45.3938	-236.5680	1.3734
45.4956	-236.5680	1.3729
45.5948	-236.5690	1.3720
45.6953	-236.5690	1.3711
45.7963	-236.5690	1.3732
45.8956	-236.5690	1.3738
45.9967	-236.6220	1.3718
46.0974	-236.8270	1.3660
46.1980	-237.0210	1.3698
46.2978	-237.2270	1.3715
46.3984	-237.4220	1.3729
46.4994	-237.6270	1.3707
46.6003	-237.8320	1.3697
46.7003	-238.0270	1.3701
46.8004	-238.2750	1.3715
46.8997	-239.1690	1.3549
47.0014	-240.1960	1.3670
47.1009	-241.1700	1.3713
47.2007	-242.1950	1.3695
47.3023	-243.1690	1.3716
47.4025	-244.1980	1.3700
47.5025	-245.1720	1.3719
47.6019	-246.1980	1.3714
47.7029	-247.2230	1.3706
47.8025	-248.1970	1.3687
47.9025	-249.2220	1.3684
48.0029	-250.1960	1.3702
48.1028	-251.2220	1.3684
48.2031	-252.1960	1.3695
48.3032	-253.2220	1.3693
48.4031	-254.1950	1.3672
48.5035	-255.2210	1.3635
48.6036	-256.1950	1.3603
48.7031	-257.2200	1.3580
48.8028	-258.1940	1.3557
48.9038	-259.2200	1.3515
49.0047	-260.2450	1.3514
49.1055	-261.2200	1.3467
49.2052	-262.2450	1.3447
49.3057	-263.2200	1.3444
49.4068	-264.2480	1.3412
49.5072	-265.2220	1.3379
49.6068	-266.2470	1.3290
49.7071	-267.2730	1.3162
49.8067	-268.2470	1.2993
49.9067	-269.2210	1.2790
50.0068	-270.2470	1.2612
50.1077	-271.2720	1.2452
50.2083	-272.2460	1.2264
50.3077	-273.2720	1.2086
50.4078	-274.2460	1.1935
50.5077	-275.2710	1.1749
50.6088	-276.2460	1.1586
50.7090	-277.2700	1.1375
50.8090	-278.2450	1.1210
50.9090	-279.2700	1.1000
51.0089	-280.2950	1.0855
51.1089	-281.2690	1.0669
51.2090	-282.2440	1.0498
51.3090	-283.2690	1.0364
51.4095	-284.2430	1.0281
51.5090	-285.2690	1.0284
51.6090	-286.2430	1.0232
51.7090	-287.2680	1.0150
51.8088	-288.2420	1.0029
51.9104	-289.2670	0.9823
52.0102	-290.2930	0.9754
52.1099	-291.2670	0.9634
52.2116	-292.2800	0.9482
52.3113	-292.5310	0.9353
52.4110	-292.5330	0.9362
52.5113	-292.5330	0.9212
52.6127	-292.5330	0.9209
52.7131	-292.5330	0.9214
52.8139	-292.5330	0.9268
52.9154	-292.5330	0.9254
53.0159	-292.5330	0.9281
53.1163	-292.5330	0.9227
53.2165	-292.5330	0.9186
53.3161	-292.5320	0.9279
53.4166	-292.5320	0.9284
53.5165	-292.5320	0.9215
53.6160	-292.5320	0.9268
53.7174	-292.5320	0.9280
53.8168	-292.5320	0.9284
53.9175	-292.5320	0.9254
54.0169	-292.5320	0.9258
54.1180	-292.5320	0.9289
54.2197	-292.5320	0.9310
54.3190	-292.5320	0.9262
54.4205	-292.5320	0.9254
54.5215	-292.5320	0.9299
54.6213	-292.5320	0.9332
54.7210	-292.5320	0.9268
54.8226	-292.5320	0.9276
54.9234	-292.5320	0.9317
55.0234	-292.5320	0.9327
55.1230	-292.5320	0.9285
55.2231	-292.5320	0.9258
55.3228	-292.5320	0.9314
55.4235	-292.5320	0.9332
55.5229	-292.5320	0.9283
55.6235	-292.5320	0.9268
55.7236	-292.5320	0.9343
55.8235	-292.5320	0.9353
55.9240	-292.5320	0.9306
56.0248	-292.5320	0.9293
56.1259	-292.5320	0.9291
56.2265	-292.5320	0.9326
56.3267	-292.5320	0.9322
56.4262	-292.5320	0.9297
56.5267	-292.5320	0.9299
56.6275	-292.5320	0.9338
56.7278	-292.5320	0.9330
56.8283	-292.5320	0.9268
56.9282	-292.5320	0.9281
57.0285	-292.5320	0.9347
57.1280	-292.5320	0.9320
57.2279	-292.5320	0.9281
57.3284	-292.5320	0.9273
57.4283	-292.5320	0.9321
57.5294	-292.5320	0.9333
57.6298	-292.5320	0.9292
57.7304	-292.5320	0.9285
57.8309	-292.5320	0.9334
57.9315	-292.5320	0.9337
58.0311	-292.5320	0.9329
58.1314	-292.5320	0.9324
58.2314	-292.5320	0.9336
58.3322	-292.5320	0.9341
58.4335	-292.5320	0.9319
58.5334	-292.5320	0.9294
58.6339	-292.5320	0.9339
58.7341	-292.5320	0.9359
58.8341	-292.5320	0.9356
58.9343	-292.5320	0.9307
59.0343	-292.5320	0.9331
59.1339	-292.5320	0.9356
59.2341	-292.5320	0.9362
59.3346	-292.5320	0.9333
59.4357	-292.5320	0.9363
59.5354	-292.5320	0.9379
59.6354	-292.5320	0.9359
59.7367	-292.5320	0.9288
59.8360	-292.5320	0.9316
59.9364	-292.5320	0.9355
60.0361	-292.5320	0.9359
60.1359	-292.5320	0.9308
60.2365	-292.5320	0.9278
60.3367	-292.5320	0.9315
60.4364	-292.5320	0.9327
60.5369	-292.5320	0.9279
60.6364	-292.5320	0.9254
60.7364	-292.5320	0.9298
60.8366	-292.5320	0.9356
60.9374	-292.5320	0.9352
61.0374	-292.5320	0.9355
61.1384	-292.5320	0.9354
61.2395	-292.5320	0.9373
61.3409	-292.5320	0.9323
61.4411	-292.5320	0.9334
61.5415	-292.5320	0.9347
61.6419	-292.5320	0.9340
61.7422	-292.5320	0.9316
61.8421	-292.5320	0.9313
61.9426	-292.5320	0.9319
62.0427	-292.5320	0.9341
62.1433	-292.5320	0.9357
62.2432	-292.5320	0.9338
62.3437	-292.5320	0.9331
62.4434	-292.5320	0.9352
62.5431	-292.5320	0.9352
62.6442	-292.5320	0.9329
62.7439	-292.5320	0.9371
62.8457	-292.5320	0.9384
62.9462	-292.5320	0.9343
63.0461	-292.5320	0.9304
63.1459	-292.5320	0.9310
63.2462	-292.5320	0.9323
63.3466	-292.5320	0.9332
63.4472	-292.5320	0.9318
63.5473	-292.5320	0.9318
63.6478	-292.5320	0.9357
63.7486	-292.5320	0.9348
63.8489	-292.5320	0.9298
63.9492	-292.5320	0.9264
64.0489	-292.5320	0.9314
64.1508	-292.5320	0.9302
64.2514	-292.5320	0.9285
64.3514	-292.5320	0.9283
64.4529	-292.5320	0.9279
64.5547	-292.5320	0.9304
64.6546	-292.5320	0.9289
64.7543	-292.5320	0.9290
64.8543	-292.5320	0.9359
64.9544	-292.5320	0.9369
65.0548	-292.5320	0.9364
65.1557	-292.5320	0.9343
65.2558	-292.5320	0.9362
65.3557	-292.5320	0.9338
65.4558	-292.5320	0.9361
65.5551	-292.5320	0.9313
65.6554	-292.5320	0.9341
65.7553	-292.5320	0.9352
65.8557	-292.5320	0.9345
65.9550	-292.5320	0.9301
66.0553	-292.5320	0.9327
66.1552	-292.5320	0.9348
66.2558	-292.5320	0.9349
66.3554	-292.5320	0.9344
66.4558	-292.5320	0.9339
66.5563	-292.5320	0.9333
66.6561	-292.5320	0.9338
66.7560	-292.5320	0.9339
66.8566	-292.5320	0.9306
66.9570	-292.5320	0.9311
67.0580	-292.5320	0.9321
67.1583	-292.5320	0.9305
67.2585	-292.5320	0.9289
67.3591	-292.5320	0.9308
67.4592	-292.5320	0.9334
67.5600	-292.5320	0.9340
67.6601	-292.5320	0.9330
67.7609	-292.5320	0.9326
67.8614	-292.5320	0.9335
67.9613	-292.5320	0.9344
68.0611	-292.5320	0.9327
68.1618	-292.5320	0.9343
68.2612	-292.5320	0.9367
68.3616	-292.5320	0.9353
68.4614	-292.5320	0.9357
68.5611	-292.5320	0.9343
68.6610	-292.5320	0.9351
68.7619	-292.5320	0.9347
68.8616	-292.5320	0.9319
68.9610	-292.5320	0.9308
69.0614	-292.5320	0.9326
69.1616	-292.5320	0.9337
69.2613	-292.5320	0.9331
69.3610	-292.5320	0.9317
69.4618	-292.5320	0.9311
69.5629	-292.5320	0.9302
69.6632	-292.5320	0.9323
69.7638	-292.5320	0.9325
69.8646	-292.5320	0.9306
69.9644	-292.5320	0.9342
70.0653	-292.5320	0.9325
70.1654	-292.5320	0.9330
70.2651	-292.5320	0.9340
70.3660	-292.5320	0.9357
70.4679	-292.5320	0.9321
70.5679	-292.5320	0.9352
70.6674	-292.5320	0.9375
70.7671	-292.5320	0.9360
70.8673	-292.5320	0.9346
70.9672	-292.5320	0.9344
71.0673	-292.5320	0.9313
71.1674	-292.5320	0.9351
71.2688	-292.5320	0.9360
71.3685	-292.5320	0.9326
71.4682	-292.5320	0.9322
71.5687	-292.5320	0.9365
71.6697	-292.5320	0.9369
71.7700	-292.5320	0.9331
71.8702	-292.5320	0.9325
71.9699	-292.5320	0.9357
72.0700	-292.5320	0.9387
72.1717	-292.5320	0.9391
72.2715	-292.5320	0.9355
72.3715	-292.5320	0.9368
72.4716	-292.5320	0.9370
72.5710	-292.5320	0.9372
72.6715	-292.5320	0.9364
72.7715	-292.5320	0.9361
72.8716	-292.5320	0.9365
72.9716	-292.5320	0.9371
73.0719	-292.5320	0.9376
73.1715	-292.5320	0.9348
73.2714	-292.5320	0.9332
73.3711	-292.5320	0.9342
73.4719	-292.5320	0.9344
73.5716	-292.5320	0.9323
73.6716	-292.5320	0.9375
73.7722	-292.5320	0.9375
73.8737	-292.5320	0.9379
73.9737	-292.5320	0.9398
74.0738	-292.5320	0.9386
74.1735	-292.5320	0.9374
74.2733	-292.5320	0.9358
74.3735	-292.5320	0.9348
74.4733	-292.5320	0.9334
74.5730	-292.5320	0.9366
74.6737	-292.5320	0.9374
74.7735	-292.5320	0.9332
74.8732	-292.5320	0.9333
74.9730	-292.5320	0.9316
75.0737	-292.5320	0.9338
75.1734	-292.5320	0.9352
75.2732	-292.5320	0.9330
75.3742	-292.5320	0.9365
75.4741	-292.5320	0.9340
75.5746	-292.5320	0.9350
75.6751	-292.5320	0.9354
75.7758	-292.5320	0.9322
75.8768	-292.5320	0.9335
75.9771	-292.5320	0.9349
76.0769	-292.5320	0.9351
76.1765	-292.5320	0.9341
76.2772	-292.5320	0.9343
76.3791	-292.5320	0.9367
76.4793	-292.5320	0.9346
76.5808	-292.5320	0.9348
76.6817	-292.5320	0.9358
76.7817	-292.5320	0.9354
76.8812	-292.5320	0.9377
76.9818	-292.5320	0.9371
77.0817	-292.5320	0.9330
77.1814	-292.5320	0.9349
77.2812	-292.5320	0.9362
77.3819	-292.5320	0.9322
77.4829	-292.5320	0.9335
77.5832	-292.5320	0.9365
77.6833	-292.5320	0.9334
77.7837	-292.5320	0.9361
77.8841	-292.5320	0.9376
77.9845	-292.5320	0.9370
78.0844	-292.5320	0.9396
78.1857	-292.5320	0.9356
78.2857	-292.5320	0.9325
78.3858	-292.5320	0.9347
78.4853	-292.5320	0.9347
78.5869	-292.5320	0.9351
78.6862	-292.5320	0.9367
78.7872	-292.5320	0.9352
78.8878	-292.5320	0.9394
78.9876	-292.5320	0.9398
79.0875	-292.5320	0.9376
79.1887	-292.5320	0.9413
79.2895	-292.5320	0.9407
79.3893	-292.5320	0.9384
79.4890	-292.5320	0.9370
79.5892	-292.5320	0.9371
79.6892	-292.5320	0.9379
79.7901	-292.5320	0.9365
79.8900	-292.5320	0.9359
79.9910	-292.5320	0.9369
80.0917	-292.5320	0.9364
80.1916	-292.5320	0.9338
80.2917	-292.5320	0.9350
80.3916	-292.5320	0.9377
80.4917	-292.5320	0.9341
80.5917	-292.5320	0.9332
80.6914	-292.5320	0.9340
80.7917	-292.5320	0.9305
80.8917	-292.5320	0.9310
80.9920	-292.5320	0.9337
81.0924	-292.5320	0.9324
81.1928	-292.5320	0.9334
81.2927	-292.5320	0.9338
81.3926	-292.5320	0.9385
81.4931	-292.5320	0.9384
81.5940	-292.5320	0.9373
81.6934	-292.5320	0.9345
81.7933	-292.5320	0.9346
81.8935	-292.5320	0.9373
81.9948	-292.5320	0.9378
82.0946	-292.5320	0.9350
82.1941	-292.5320	0.9346
82.2945	-292.5320	0.9383
82.3941	-292.5320	0.9356
82.4942	-292.5320	0.9367
82.5941	-292.5320	0.9349
82.6950	-292.5320	0.9343
82.7946	-292.5320	0.9396
82.8941	-292.5320	0.9383
82.9942	-292.5320	0.9336
83.0949	-292.5320	0.9331
83.1948	-292.5320	0.9345
83.2945	-292.5320	0.9372
83.3959	-292.5320	0.9347
83.4959	-292.5320	0.9417
83.5962	-292.5320	0.9431
83.6968	-292.5320	0.9404
83.7963	-292.5320	0.9401
83.8969	-292.5320	0.9372
83.9962	-292.5320	0.9349
84.0970	-292.5320	0.9345
84.1966	-292.5320	0.9364
84.2988	-292.5320	0.9358
84.3971	-292.5320	0.9359
84.4979	-292.5320	0.9367
84.5988	-292.5320	0.9354
84.6992	-292.5320	0.9348
84.7993	-292.5320	0.9363
84.9009	-292.5320	0.9384
85.0025	-292.5320	0.9369
85.1026	-292.5320	0.9327
85.2035	-292.5320	0.9361
85.3042	-292.5320	0.9398
85.4048	-292.5320	0.9408
85.5045	-292.5320	0.9364
85.6044	-292.5320	0.9385
85.7069	-292.5320	0.9386
85.8060	-292.5320	0.9381
85.9057	-292.5320	0.9378
86.0055	-292.5320	0.9425
86.1052	-292.5320	0.9402
86.2053	-292.5320	0.9384
86.3058	-292.5320	0.9400
86.4060	-292.5320	0.9405
86.5058	-292.5320	0.9407
86.6057	-292.5320	0.9367
86.7051	-292.5320	0.9369
86.8058	-292.5320	0.9353
86.9053	-292.5320	0.9359
87.0058	-292.5320	0.9376
87.1064	-292.5320	0.9353
87.2062	-292.5320	0.9383
87.3071	-292.5320	0.9374
87.4081	-292.5320	0.9368
87.5083	-292.5320	0.9329
87.6083	-292.5320	0.9356
87.7087	-292.5320	0.9347
87.8088	-292.5320	0.9357
87.9082	-292.5320	0.9369
88.0092	-292.5320	0.9371
88.1094	-292.5320	0.9364
88.2093	-292.5320	0.9362
88.3094	-292.5320	0.9377
88.4094	-292.5320	0.9339
88.5100	-292.5320	0.9388
88.6094	-292.5320	0.9384
88.7095	-292.5320	0.9365
88.8094	-292.5320	0.9348
88.9100	-292.5320	0.9358
89.0094	-292.5320	0.9345
89.1095	-292.5320	0.9367
89.2096	-292.5320	0.9359
89.3093	-292.5320	0.9391
89.4092	-292.5320	0.9397
89.5107	-292.5320	0.9430
89.6104	-292.5320	0.9402
89.7120	-292.5320	0.9385
89.8113	-292.5320	0.9405
89.9129	-292.5320	0.9372
90.0125	-292.5320	0.9347
90.1134	-292.5320	0.9376
90.2149	-292.5320	0.9341
90.3150	-292.5320	0.9351
90.4145	-292.5320	0.9339
90.5154	-292.5320	0.9353
90.6152	-292.5320	0.9358
90.7152	-292.5320	0.9349
90.8159	-292.5320	0.9373
90.9165	-292.5320	0.9346
91.0181	-292.5320	0.9391
91.1190	-292.5320	0.9381
91.2197	-292.5320	0.9332
91.3198	-292.5320	0.9381
91.4195	-292.5320	0.9358
91.5201	-292.5320	0.9379
91.6210	-292.5320	0.9383
91.7227	-292.5320	0.9364
91.8212	-292.5320	0.9371
91.9214	-292.5320	0.9371
92.0229	-292.5320	0.9348
92.1229	-292.5320	0.9325
92.2223	-292.5320	0.9349
92.3225	-292.5320	0.9398
92.4228	-292.5320	0.9356
92.5223	-292.5320	0.9376
92.6235	-292.5320	0.9369
92.7235	-292.5320	0.9372
92.8239	-292.5320	0.9368
92.9247	-292.5320	0.9364
93.0245	-292.5320	0.9396
93.1245	-292.5320	0.9349
93.2259	-292.5320	0.9362
93.3252	-292.5320	0.9361
93.4258	-292.5320	0.9392
93.5254	-292.5320	0.9385
93.6264	-292.5320	0.9435
93.7272	-292.5320	0.9395
93.8279	-292.5320	0.9417
93.9280	-292.5320	0.9404
94.0276	-292.5320	0.9382
94.1281	-292.5320	0.9374
94.2290	-292.5320	0.9395
94.3294	-292.5320	0.9396
94.4294	-292.5320	0.9373
94.5296	-292.5320	0.9399
94.6294	-292.5320	0.9394
94.7292	-292.5320	0.9385
94.8295	-292.5320	0.9370
94.9312	-292.5320	0.9376
95.0313	-292.5320	0.9379
95.1319	-292.5320	0.9366
95.2319	-292.5320	0.9359
95.3319	-292.5320	0.9351
95.4315	-292.5320	0.9342
95.5318	-292.5320	0.9350
95.6318	-292.5320	0.9374
95.7316	-292.5320	0.9349
95.8316	-292.5320	0.9397
95.9319	-292.5320	0.9348
96.0317	-292.5320	0.9346
96.1319	-292.5320	0.9372
96.2319	-292.5320	0.9364
96.3323	-292.5320	0.9338
96.4335	-292.5320	0.9339
96.5344	-292.5320	0.9358
96.6351	-292.5320	0.9369
96.7363	-292.5320	0.9427
96.8364	-292.5320	0.9366
96.9370	-292.5320	0.9366
97.0365	-292.5320	0.9392
97.1364	-292.5320	0.9356
97.2363	-292.5320	0.9401
97.3365	-292.5320	0.9397
97.4374	-292.5320	0.9406
97.5375	-292.5320	0.9376
97.6378	-292.5320	0.9373
97.7392	-292.5320	0.9371
97.8383	-292.5320	0.9389
97.9384	-292.5320	0.9393
98.0395	-292.5320	0.9371
98.1393	-292.5320	0.9349
98.2395	-292.5320	0.9377
98.3396	-292.5320	0.9380
98.4409	-292.5320	0.9364
98.5413	-292.5320	0.9337
98.6430	-292.5320	0.9378
98.7441	-292.5320	0.9352
98.8437	-292.5320	0.9368
98.9440	-292.5320	0.9360
99.0443	-292.5320	0.9352
99.1452	-292.5320	0.9337
99.2448	-292.5320	0.9360
99.3444	-292.5320	0.9340
99.4447	-292.5320	0.9340
99.5450	-292.5320	0.9360
99.6461	-292.5320	0.9349
99.7470	-292.5320	0.9377
99.8467	-292.5320	0.9413
99.9465	-292.5320	0.9396
100.0465	-292.5320	0.9414
100.1479	-292.5320	0.9399
100.2474	-292.5320	0.9397
100.3484	-292.5320	0.9363
100.4489	-292.5320	0.9397
100.5492	-292.5320	0.9408
100.6486	-292.5320	0.9380
100.7487	-292.5320	0.9367
100.8490	-292.5320	0.9386
100.9491	-292.5320	0.9401
101.0486	-292.5320	0.9386
101.1491	-292.5320	0.9355
101.2495	-292.5320	0.9358
101.3503	-292.5320	0.9410
101.4506	-292.5320	0.9444
101.5505	-292.5320	0.9444
101.6523	-292.5320	0.9395
101.7532	-292.5320	0.9401
101.8526	-292.5320	0.9373
101.9538	-292.5320	0.9366
102.0533	-292.5320	0.9381
102.1544	-292.5320	0.9376
102.2553	-292.5320	0.9396
102.3570	-292.5320	0.9404
102.4568	-292.5320	0.9426
102.5569	-292.5320	0.9354
102.6571	-292.5320	0.9370
102.7570	-292.5320	0.9359
102.8574	-292.5320	0.9350
102.9578	-292.5320	0.9395
103.0581	-292.5320	0.9364
103.1590	-292.5320	0.9412
103.2593	-292.5320	0.9369
103.3597	-292.5320	0.9412
103.4610	-292.5320	0.9402
103.5612	-292.5320	0.9433
103.6610	-292.5320	0.9421
103.7604	-292.5320	0.9428
103.8624	-292.5320	0.9419
103.9623	-292.5320	0.9429
104.0628	-292.5320	0.9440
104.1627	-292.5320	0.9418
104.2641	-292.5320	0.9409
104.3640	-292.5320	0.9419
104.4642	-292.5320	0.9400
104.5640	-292.5320	0.9420
104.6642	-292.5320	0.9363
104.7639	-292.5320	0.9362
104.8635	-292.5320	0.9366
104.9645	-292.5320	0.9395
105.0651	-292.5320	0.9334
105.1644	-292.5320	0.9342
105.2651	-292.5320	0.9346
105.3648	-292.5320	0.9351
105.4644	-292.5320	0.9303
105.5645	-292.5320	0.9340
105.6654	-292.5320	0.9333
105.7654	-292.5320	0.9334
105.8657	-292.5320	0.9385
105.9661	-292.5320	0.9356
106.0665	-292.5320	0.9421
106.1669	-292.5320	0.9383
106.2671	-292.5320	0.9374
106.3681	-292.5320	0.9377
106.4685	-292.5320	0.9402
106.5690	-292.5320	0.9391
106.6691	-292.5320	0.9386
106.7694	-292.5320	0.9378
106.8696	-292.5320	0.9384
106.9706	-292.5320	0.9381
107.0712	-292.5320	0.9404
107.1715	-292.5320	0.9339
107.2721	-292.5320	0.9396
107.3720	-292.5320	0.9397
107.4718	-292.5320	0.9399
107.5714	-292.5320	0.9359
107.6728	-292.5320	0.9382
107.7725	-292.5320	0.9425
107.8732	-292.5320	0.9385
107.9731	-292.5320	0.9388
108.0725	-292.5320	0.9423
108.1742	-292.5320	0.9393
108.2743	-292.5320	0.9413
108.3734	-292.5320	0.9386
108.4735	-292.5320	0.9376
108.5746	-292.5320	0.9424
108.6760	-292.5320	0.9428
108.7755	-292.5320	0.9373
108.8772	-292.5320	0.9366
108.9766	-292.5320	0.9378
109.0769	-292.5320	0.9429
109.1784	-292.5320	0.9411
109.2781	-292.5320	0.9375
109.3776	-292.5320	0.9378
109.4779	-292.5320	0.9399
109.5779	-292.5320	0.9373
109.6779	-292.5320	0.9355
109.7780	-292.5320	0.9387
109.8780	-292.5320	0.9373
109.9783	-292.5320	0.9365
110.0785	-292.5320	0.9401
110.1802	-292.5320	0.9403
110.2796	-292.5320	0.9389
110.3796	-292.5320	0.9393
110.4796	-292.5320	0.9381
110.5803	-292.5320	0.9380
110.6800	-292.5320	0.9375
110.7797	-292.5320	0.9393
110.8796	-292.5320	0.9402
110.9823	-292.5320	0.9386
111.0812	-292.5320	0.9422
111.1811	-292.5320	0.9383
111.2812	-292.5320	0.9370
111.3824	-292.5320	0.9414
111.4822	-292.5320	0.9394
111.5816	-292.5320	0.9410
111.6817	-292.5320	0.9453
111.7818	-292.5320	0.9397
111.8822	-292.5320	0.9377
111.9821	-292.5320	0.9446
112.0815	-292.5320	0.9422
112.1821	-292.5320	0.9391
112.2818	-292.5320	0.9428
112.3821	-292.5320	0.9415
112.4819	-292.5320	0.9399
112.5822	-292.5320	0.9399
112.6822	-292.5320	0.9380
112.7817	-292.5320	0.9403
112.8820	-292.5320	0.9429
112.9824	-292.5320	0.9417
113.0840	-292.5320	0.9388
113.1839	-292.5320	0.9408
113.2852	-292.5320	0.9403
113.3846	-292.5320	0.9376
113.4852	-292.5320	0.9413
113.5857	-292.5320	0.9436
113.6855	-292.5320	0.9400
113.7871	-292.5320	0.9427
113.8865	-292.5320	0.9389
113.9867	-292.5320	0.9432
114.0865	-292.5320	0.9398
114.1882	-292.5320	0.9392
114.2880	-292.5320	0.9399
114.3885	-292.5320	0.9436
114.4888	-292.5320	0.9409
114.5896	-292.5320	0.9404
114.6897	-292.5320	0.9383
114.7898	-292.5320	0.9377
114.8907	-292.5320	0.9383
114.9919	-292.5320	0.9386
115.0917	-292.5320	0.9369
115.1932	-292.5320	0.9406
115.2927	-292.5320	0.9397
115.3935	-292.5320	0.9419
115.4931	-292.5320	0.9411
115.5942	-292.5320	0.9413
115.6932	-292.5320	0.9422
115.7930	-292.5320	0.9398
115.8944	-292.5320	0.9449
115.9941	-292.5320	0.9460
116.0936	-292.5320	0.9404
116.1941	-292.5320	0.9407
116.2935	-292.5320	0.9410
116.3952	-292.5320	0.9419
116.4957	-292.5320	0.9414
116.5975	-292.5320	0.9395
116.6984	-292.5320	0.9403
116.7987	-292.5320	0.9396
116.9002	-292.5320	0.9402
117.0010	-292.5320	0.9417
117.1015	-292.5320	0.9389
117.2013	-292.5320	0.9406
117.3006	-292.5320	0.9425
117.4012	-292.5320	0.9354
117.5019	-292.5320	0.9384
117.6018	-292.5320	0.9402
117.7024	-292.5320	0.9410
117.8026	-292.5320	0.9404
117.9029	-292.5320	0.9402
118.0027	-292.5320	0.9355
118.1042	-292.5320	0.9408
118.2050	-292.5320	0.9421
118.3048	-292.5320	0.9378
118.4047	-292.5320	0.9429
118.5057	-292.5320	0.9403
118.6063	-292.5320	0.9390
118.7062	-292.5320	0.9412
118.8069	-292.5320	0.9432
118.9066	-292.5320	0.9390
119.0071	-292.5320	0.9374
119.1082	-292.5320	0.9395
119.2102	-292.5320	0.9394
119.3098	-292.5320	0.9402
119.4115	-292.5320	0.9393
119.5122	-292.5320	0.9366
119.6119	-292.5320	0.9364
119.7119	-292.5320	0.9382
119.8135	-292.5320	0.9363
119.9154	-292.5320	0.9364
120.0149	-292.5320	0.9365
120.1152	-292.5320	0.9403
120.2146	-292.5320	0.9413
120.3147	-292.5320	0.9355
120.4157	-292.5320	0.9336
120.5172	-292.5320	0.9366
120.6174	-292.5320	0.9361
120.7170	-292.5320	0.9385
120.8175	-292.5320	0.9378
120.9180	-292.5320	0.9372
121.0181	-292.5320	0.9432
121.1183	-292.5320	0.9409
121.2181	-292.5320	0.9364
121.3180	-292.5320	0.9353
121.4178	-292.5320	0.9405
121.5180	-292.5320	0.9415
121.6194	-292.5320	0.9393
121.7190	-292.5320	0.9402
121.8187	-292.5320	0.9374
121.9189	-292.5320	0.9396
122.0188	-292.5320	0.9371
122.1202	-292.5320	0.9361
122.2206	-292.5320	0.9367
122.3207	-292.5320	0.9412
122.4216	-292.5320	0.9376
122.5223	-292.5320	0.9350
122.6222	-292.5320	0.9366
122.7222	-292.5320	0.9426
122.8218	-292.5320	0.9391
122.9221	-292.5320	0.9398
123.0216	-292.5320	0.9354
123.1221	-292.5320	0.9398
123.2222	-292.5320	0.9369
123.3232	-292.5320	0.9365
123.4229	-292.5320	0.9358
123.5234	-292.5320	0.9370
123.6229	-292.5320	0.9403
123.7227	-292.5320	0.9383
123.8228	-292.5320	0.9388
123.9235	-292.5320	0.9412
124.0227	-292.5320	0.9400
124.1234	-292.5320	0.9395
124.2238	-292.5320	0.9367
124.3237	-292.5320	0.9382
124.4252	-292.5320	0.9409
124.5263	-292.5320	0.9362
124.6257	-292.5320	0.9388
124.7260	-292.5320	0.9344
124.8265	-292.5320	0.9386
124.9257	-292.5320	0.9412
125.0275	-292.5320	0.9380
125.1268	-292.5320	0.9352
125.2273	-292.5320	0.9365
125.3283	-292.5320	0.9398
125.4300	-292.5320	0.9380
125.5291	-292.5320	0.9366
125.6287	-292.5320	0.9363
125.7296	-292.5320	0.9386
125.8295	-292.5320	0.9403
125.9294	-292.5320	0.9358
126.0286	-292.5320	0.9365
126.1290	-292.5320	0.9415
126.2295	-292.5320	0.9416
126.3292	-292.5320	0.9403
126.4292	-292.5320	0.9336
126.5286	-292.5320	0.9389
126.6294	-292.5320	0.9407
126.7292	-292.5320	0.9422
126.8292	-292.5320	0.9378
126.9297	-292.5320	0.9376
127.0303	-292.5320	0.9397
127.1301	-292.5320	0.9403
127.2300	-292.5320	0.9422
127.3316	-292.5320	0.9366
127.4323	-292.5320	0.9395
127.5323	-292.5320	0.9400
127.6320	-292.5320	0.9418
127.7317	-292.5320	0.9384
127.8323	-292.5320	0.9440
127.9323	-292.5320	0.9422
128.0322	-292.5320	0.9402
128.1324	-292.5320	0.9403
128.2324	-292.5320	0.9399
128.3321	-292.5320	0.9361
128.4332	-292.5320	0.9373
128.5335	-292.5320	0.9385
128.6336	-292.5320	0.9363
128.7337	-292.5320	0.9376
128.8348	-292.5320	0.9375
128.9351	-292.5320	0.9401
129.0353	-292.5320	0.9386
129.1354	-292.5320	0.9420
129.2357	-292.5320	0.9419
129.3364	-292.5320	0.9422
129.4361	-292.5320	0.9398
129.5363	-292.5320	0.9429
129.6364	-292.5320	0.9447
129.7362	-292.5320	0.9437
129.8375	-292.5320	0.9425
129.9383	-292.5320	0.9436
130.0388	-292.5320	0.9438
130.1392	-292.5320	0.9459
130.2396	-292.5320	0.9434
130.3391	-292.5320	0.9442
130.4392	-292.5320	0.9422
130.5389	-292.5320	0.9392
130.6392	-292.5320	0.9430
130.7389	-292.5320	0.9403
130.8398	-292.5320	0.9445
130.9408	-292.5320	0.9403
131.0416	-292.5320	0.9402
131.1423	-292.5320	0.9434
131.2422	-292.5320	0.9410
131.3418	-292.5320	0.9419
131.4418	-292.5320	0.9390
131.5420	-292.5320	0.9389
131.6418	-292.5320	0.9456
131.7425	-292.5320	0.9415
131.8418	-292.5320	0.9402
131.9422	-292.5320	0.9402
132.0432	-292.5320	0.9362
132.1429	-292.5320	0.9372
132.2433	-292.5320	0.9404
132.3447	-292.5320	0.9406
132.4448	-292.5320	0.9402
132.5457	-292.5320	0.9409
132.6460	-292.5320	0.9405
132.7474	-292.5320	0.9413
132.8484	-292.5320	0.9430
132.9493	-292.5320	0.9408
133.0489	-292.5320	0.9382
133.1495	-292.5320	0.9436
133.2495	-292.5320	0.9452
133.3496	-292.5320	0.9439
133.4501	-292.5320	0.9447
133.5500	-292.5320	0.9434
133.6514	-292.5320	0.9400
133.7526	-292.5320	0.9409
133.8525	-292.5320	0.9402
133.9524	-292.5320	0.9400
134.0522	-292.5320	0.9372
134.1534	-292.5320	0.9408
134.2531	-292.5320	0.9432
134.3536	-292.5320	0.9439
134.4527	-292.5320	0.9410
134.5531	-292.5320	0.9436
134.6542	-292.5320	0.9426
134.7554	-292.5320	0.9399
134.8565	-292.5320	0.9399
134.9568	-292.5320	0.9420
135.0587	-292.5320	0.9408
135.1582	-292.5320	0.9437
135.2596	-292.5320	0.9383
135.3598	-292.5320	0.9391
135.4616	-292.5320	0.9408
135.5621	-292.3810	0.9427
135.6830	-292.0260	0.9416
135.7827	-292.0000	0.9395
135.8834	-292.0000	0.9422
135.9832	-292.0000	0.9645
136.0829	-292.0000	0.9358
136.1846	-292.0000	0.9551
136.2844	-292.0000	0.9485
136.3841	-292.0000	0.9553
136.4839	-292.0000	0.9527
136.5846	-292.0000	0.9545
136.6843	-292.0000	0.9533
136.7841	-292.0000	0.9513
136.8838	-292.0000	0.9575
136.9845	-292.0000	0.9550
137.0843	-292.0000	0.9521
137.1840	-292.0000	0.9521
137.2839	-292.0000	0.9529
137.3840	-292.0000	0.9523
137.4844	-292.0000	0.9526
137.5845	-292.0000	0.9503
137.6846	-292.0000	0.9568
137.7859	-292.0000	0.9585
137.8851	-292.0000	0.9580
137.9852	-292.0000	0.9542
138.0861	-292.0000	0.9548
138.1877	-292.0000	0.9546
138.2872	-292.0000	0.9523
138.3878	-292.0000	0.9538
138.4880	-292.0000	0.9530
138.5882	-292.0000	0.9530
138.6900	-292.0000	0.9553
138.7898	-292.0000	0.9550
138.8907	-292.0000	0.9542
138.9900	-292.0000	0.9556
139.0903	-292.0000	0.9573
139.1915	-292.0000	0.9553
139.2919	-292.0000	0.9541
139.3921	-292.0000	0.9539
139.4929	-292.0000	0.9559
139.5929	-292.0000	0.9521
139.6937	-292.0000	0.9522
139.7942	-292.0000	0.9527
139.8957	-292.0000	0.9513
139.9960	-292.0000	0.9508
140.0960	-292.0000	0.9496
140.1975	-292.0000	0.9508
140.2971	-292.0000	0.9507
140.3977	-292.0000	0.9516
140.4985	-292.0000	0.9539
140.5981	-292.0000	0.9539
140.6978	-292.0000	0.9521
140.7986	-292.0000	0.9517
140.8978	-292.0000	0.9483
140.9996	-292.0000	0.9520
141.0989	-292.0000	0.9507
141.1989	-292.0000	0.9499
141.2990	-292.0000	0.9524
141.3991	-292.0000	0.9508
141.4997	-292.0000	0.9535
141.5998	-292.0000	0.9509
141.7013	-292.0000	0.9520
141.8019	-292.0000	0.9505
141.9025	-292.0000	0.9551
142.0019	-292.0000	0.9533
142.1041	-292.0000	0.9486
142.2039	-292.0000	0.9463
142.3041	-292.0000	0.9508
142.4053	-292.0000	0.9512
142.5050	-292.0000	0.9542
142.6053	-292.0000	0.9503
142.7051	-292.0000	0.9510
142.8050	-292.0000	0.9557
142.9051	-292.0000	0.9560
143.0055	-292.0000	0.9531
143.1053	-292.0000	0.9548
143.2051	-292.0000	0.9532
143.3050	-292.0000	0.9554
143.4059	-292.0000	0.9524
143.5060	-292.0000	0.9501
143.6059	-292.0000	0.9526
143.7061	-292.0000	0.9554
143.8071	-292.0000	0.9541
143.9074	-292.0000	0.9508
144.0075	-292.0000	0.9510
144.1078	-292.0000	0.9534
144.2079	-292.0000	0.9565
144.3091	-292.0000	0.9568
144.4089	-292.0000	0.9521
144.5105	-292.0000	0.9514
144.6100	-292.0000	0.9508
144.7113	-292.0000	0.9501
144.8122	-292.0000	0.9484
144.9122	-292.0000	0.9471
145.0126	-292.0000	0.9506
145.1122	-292.0000	0.9491
145.2126	-292.0000	0.9525
145.3123	-292.0000	0.9490
145.4125	-292.0000	0.9480
145.5126	-292.0000	0.9501
145.6126	-292.0000	0.9479
145.7129	-292.0000	0.9494
145.8135	-292.0000	0.9479
145.9129	-292.0000	0.9474
146.0136	-292.0000	0.9485
146.1145	-292.0000	0.9486
146.2147	-292.0000	0.9486
146.3147	-292.0000	0.9496
146.4150	-292.0000	0.9506
146.5159	-292.0000	0.9500
146.6159	-292.0000	0.9476
146.7159	-292.0000	0.9474
146.8164	-292.0000	0.9512
146.9171	-292.0000	0.9473
147.0185	-292.0000	0.9462
147.1183	-292.0000	0.9502
147.2188	-292.0000	0.9532
147.3196	-292.0000	0.9549
147.4189	-292.0000	0.9552
147.5205	-292.0000	0.9535
147.6199	-292.0000	0.9554
147.7207	-292.0000	0.9539
147.8214	-292.0000	0.9578
147.9224	-292.0000	0.9528
148.0223	-292.0000	0.9569
148.1229	-292.0000	0.9540
148.2247	-292.0000	0.9550
148.3249	-292.0000	0.9563
148.4247	-292.0000	0.9525
148.5245	-292.0000	0.9542
148.6241	-292.0000	0.9566
148.7242	-292.0000	0.9551
148.8268	-292.0000	0.9526
148.9265	-292.0000	0.9521
149.0276	-292.0000	0.9542
149.1277	-292.0000	0.9536
149.2280	-292.0000	0.9512
149.3282	-292.0000	0.9540
149.4296	-292.0000	0.9527
149.5293	-292.0000	0.9552
149.6301	-292.0000	0.9503
149.7318	-292.0000	0.9474
149.8322	-292.0000	0.9509
149.9328	-292.0000	0.9517
150.0325	-292.0000	0.9514
150.1320	-292.0000	0.9488
150.2336	-292.0000	0.9515
150.3341	-292.0000	0.9544
150.4346	-292.0000	0.9517
150.5340	-292.0000	0.9499
150.6356	-292.0000	0.9515
150.7353	-292.0000	0.9523
150.8356	-292.0000	0.9517
150.9354	-292.0000	0.9472
151.0353	-292.0000	0.9498
151.1357	-292.0000	0.9533
151.2356	-292.0000	0.9559
151.3369	-292.0000	0.9548
151.4362	-292.0000	0.9535
151.5369	-292.0000	0.9543
151.6372	-292.0000	0.9568
151.7374	-292.0000	0.9582
151.8371	-292.0000	0.9553
151.9374	-292.0000	0.9540
152.0375	-292.0000	0.9560
152.1375	-292.0000	0.9546
152.2371	-292.0000	0.9550
152.3373	-292.0000	0.9556
152.4370	-292.0000	0.9540
152.5374	-292.0000	0.9509
152.6372	-292.0000	0.9548
152.7377	-292.0000	0.9523
152.8377	-292.0000	0.9561
152.9376	-292.0000	0.9535
153.0378	-292.0000	0.9536
153.1375	-292.0000	0.9503
153.2378	-292.0000	0.9554
153.3379	-292.0000	0.9521
153.4376	-292.0000	0.9531
153.5372	-292.0000	0.9494
153.6370	-292.0000	0.9481
153.7372	-292.0000	0.9500
153.8370	-292.0000	0.9551
153.9375	-292.0000	0.9533
154.0380	-292.0000	0.9495
154.1389	-292.0000	0.9513
154.2384	-292.0000	0.9529
154.3390	-292.0000	0.9459
154.4409	-292.0000	0.9480
154.5407	-292.0000	0.9493
154.6402	-292.0000	0.9482
154.7403	-292.0000	0.9489
154.8400	-292.0000	0.9473
154.9405	-292.0000	0.9483
155.0402	-292.0000	0.9503
155.1403	-292.0000	0.9530
155.2416	-292.0000	0.9521
155.3410	-292.0000	0.9506
155.4418	-292.0000	0.9534
155.5417	-292.0000	0.9559
155.6437	-292.0000	0.9539
155.7444	-292.0000	0.9520
155.8451	-292.0000	0.9499
155.9467	-292.0000	0.9539
156.0467	-292.0000	0.9539
156.1479	-292.0000	0.9570
156.2473	-292.0000	0.9553
156.3480	-292.0000	0.9520
156.4479	-292.0000	0.9521
156.5487	-292.0000	0.9548
156.6494	-292.0000	0.9550
156.7497	-292.0000	0.9550
156.8498	-292.0000	0.9543
156.9499	-292.0000	0.9600
157.0494	-292.0000	0.9564
157.1499	-292.0000	0.9566
157.2498	-292.0000	0.9501
157.3498	-292.0000	0.9547
157.4507	-292.0000	0.9559
157.5508	-292.0000	0.9563
157.6500	-292.0000	0.9493
157.7516	-292.0000	0.9513
157.8511	-292.0000	0.9568
157.9512	-292.0000	0.9542
158.0510	-292.0000	0.9518
158.1517	-292.0000	0.9471
158.2511	-292.0000	0.9536
158.3511	-292.0000	0.9522
158.4519	-292.0000	0.9541
158.5516	-292.0000	0.9555
158.6511	-292.0000	0.9540
158.7514	-292.0000	0.9570
158.8530	-292.0000	0.9545
158.9526	-292.0000	0.9503
159.0528	-292.0000	0.9496
159.1527	-292.0000	0.9538
159.2538	-292.0000	0.9530
159.3540	-292.0000	0.9485
159.4535	-292.0000	0.9480
159.5537	-292.0000	0.9539
159.6540	-292.0000	0.9531
159.7543	-292.0000	0.9500
159.8547	-292.0000	0.9486
159.9549	-292.0000	0.9503
160.0552	-292.0000	0.9521
160.1561	-292.0000	0.9502
160.2569	-292.0000	0.9500
160.3568	-292.0000	0.9490
160.4563	-292.0000	0.9534
160.5564	-292.0000	0.9560
160.6566	-292.0000	0.9540
160.7567	-292.0000	0.9545
160.8568	-292.0000	0.9563
160.9566	-292.0000	0.9550
161.0564	-292.0000	0.9586
161.1571	-292.0000	0.9548
161.2573	-292.0000	0.9578
161.3581	-292.0000	0.9571
161.4582	-292.0000	0.9555
161.5592	-292.0000	0.9566
161.6603	-292.0000	0.9533
161.7604	-292.0000	0.9568
161.8604	-292.0000	0.9516
161.9610	-292.0000	0.9528
162.0603	-292.0000	0.9541
162.1604	-292.0000	0.9506
162.2604	-292.0000	0.9542
162.3605	-292.0000	0.9494
162.4608	-292.0000	0.9515
162.5609	-292.0000	0.9527
162.6604	-292.0000	0.9487
162.7609	-292.0000	0.9514
162.8622	-292.0000	0.9496
162.9626	-292.0000	0.9532
163.0638	-292.0000	0.9481
163.1634	-292.0000	0.9537
163.2640	-292.0000	0.9481
163.3636	-292.0000	0.9524
163.4648	-292.0000	0.9517
163.5646	-292.0000	0.9523
163.6643	-292.0000	0.9482
163.7655	-292.0000	0.9497
163.8656	-292.0000	0.9527
163.9654	-292.0000	0.9521
164.0670	-292.0000	0.9522
164.1665	-292.0000	0.9500
164.2670	-292.0000	0.9503
164.3668	-292.0000	0.9516
164.4668	-292.0000	0.9506
164.5662	-292.0000	0.9500
164.6680	-292.0000	0.9545
164.7672	-292.0000	0.9555
164.8684	-292.0000	0.9565
164.9686	-292.0000	0.9509
165.0684	-292.0000	0.9554
165.1685	-292.0000	0.9565
165.2698	-292.0000	0.9543
165.3703	-292.0000	0.9512
165.4704	-292.0000	0.9542
165.5721	-292.0000	0.9568
165.6728	-292.0000	0.9559
165.7728	-292.0000	0.9524
165.8725	-292.0000	0.9530
165.9723	-292.0000	0.9536
166.0727	-292.0000	0.9548
166.1728	-292.0000	0.9516
166.2727	-292.0000	0.9528
166.3721	-292.0000	0.9522
166.4729	-292.0000	0.9539
166.5724	-292.0000	0.9541
166.6729	-292.0000	0.9507
166.7722	-292.0000	0.9500
166.8728	-292.0000	0.9554
166.9728	-292.0000	0.9553
167.0724	-292.0000	0.9524
167.1730	-292.0000	0.9517
167.2727	-292.0000	0.9554
167.3728	-292.0000	0.9542
167.4727	-292.0000	0.9564
167.5728	-292.0000	0.9543
167.6727	-292.0000	0.9520
167.7726	-292.0000	0.9525
167.8727	-292.0000	0.9546
167.9729	-292.0000	0.9501
168.0729	-292.0000	0.9495
168.1728	-292.0000	0.9516
168.2726	-292.0000	0.9539
168.3729	-292.0000	0.9543
168.4728	-292.0000	0.9533
168.5728	-292.0000	0.9529
168.6739	-292.0000	0.9543
168.7741	-292.0000	0.9539
168.8751	-292.0000	0.9526
168.9744	-292.0000	0.9501
169.0749	-292.0000	0.9544
169.1751	-292.0000	0.9565
169.2758	-292.0000	0.9521
169.3769	-292.0000	0.9494
169.4765	-292.0000	0.9543
169.5781	-292.0000	0.9533
169.6779	-292.0000	0.9528
169.7778	-292.0000	0.9518
169.8772	-292.0000	0.9485
169.9781	-292.0000	0.9540
170.0778	-292.0000	0.9549
170.1783	-292.0000	0.9546
170.2786	-292.0000	0.9541
170.3802	-292.0000	0.9571
170.4799	-292.0000	0.9566
170.5807	-292.0000	0.9547
170.6819	-292.0000	0.9520
170.7820	-292.0000	0.9554
170.8820	-292.0000	0.9577
170.9829	-292.0000	0.9548
171.0828	-292.0000	0.9538
171.1828	-292.0000	0.9561
171.2824	-292.0000	0.9547
171.3829	-292.0000	0.9531
171.4832	-292.0000	0.9532
171.5829	-292.0000	0.9533
171.6825	-292.0000	0.9560
171.7830	-292.0000	0.9562
171.8834	-292.0000	0.9581
171.9844	-292.0000	0.9527
172.0844	-292.0000	0.9544
172.1859	-292.0000	0.9611
172.2856	-292.0000	0.9577
172.3862	-292.0000	0.9558
172.4855	-292.0000	0.9532
172.5860	-292.0000	0.9557
172.6861	-292.0000	0.9573
172.7856	-292.0000	0.9541
172.8855	-292.0000	0.9531
172.9862	-292.0000	0.9532
173.0857	-292.0000	0.9535
173.1855	-292.0000	0.9560
173.2871	-292.0000	0.9542
173.3872	-292.0000	0.9527
173.4881	-292.0000	0.9542
173.5881	-292.0000	0.9558
173.6873	-292.0000	0.9535
173.7880	-292.0000	0.9533
173.8875	-292.0000	0.9549
173.9877	-292.0000	0.9548
174.0877	-292.0000	0.9542
174.1875	-292.0000	0.9528
174.2880	-292.0000	0.9531
174.3875	-292.0000	0.9526
174.4882	-292.0000	0.9527
174.5878	-292.0000	0.9534
174.6879	-292.0000	0.9528
174.7876	-292.0000	0.9513
174.8878	-292.0000	0.9521
174.9877	-292.0000	0.9544
175.0889	-292.0000	0.9559
175.1892	-292.0000	0.9552
175.2892	-292.0000	0.9555
175.3888	-292.0000	0.9547
175.4888	-292.0000	0.9530
175.5891	-292.0000	0.9512
175.6894	-292.0000	0.9520
175.7904	-292.0000	0.9521
175.8905	-292.0000	0.9499
175.9905	-292.0000	0.9485
176.0905	-292.0000	0.9597
176.1904	-292.0000	0.9510
176.2905	-292.0000	0.9519
176.3919	-292.0000	0.9526
176.4915	-292.0000	0.9526
176.5913	-292.0000	0.9521
176.6916	-292.0000	0.9543
176.7918	-292.0000	0.9541
176.8927	-292.0000	0.9537
176.9929	-292.0000	0.9574
177.0943	-292.0000	0.9570
177.1959	-292.0000	0.9514
177.2967	-292.0000	0.9553
177.3963	-292.0000	0.9554
177.4974	-292.0000	0.9527
177.5981	-292.0000	0.9511
177.6976	-292.0000	0.9514
177.7978	-292.0000	0.9504
177.8983	-292.0000	0.9570
177.9989	-292.0000	0.9532
178.0990	-292.0000	0.9505
178.1998	-292.0000	0.9538
178.3005	-292.0000	0.9581
178.4006	-292.0000	0.9551
178.5019	-292.0000	0.9558
178.6027	-292.0000	0.9617
178.7024	-292.0000	0.9553
178.8025	-292.0000	0.9541
178.9048	-292.0000	0.9536
179.0047	-292.0000	0.9500
179.1047	-292.0000	0.9587
179.2045	-292.0000	0.9576
179.3059	-292.0000	0.9554
179.4060	-292.0000	0.9500
179.5054	-292.0000	0.9606
179.6056	-292.0000	0.9600
179.7054	-292.0000	0.9544
179.8053	-292.0000	0.9545
179.9058	-292.0000	0.9527
180.0056	-292.0000	0.9554
180.1060	-292.0000	0.9553
180.2059	-292.0000	0.9472
180.3069	-292.0000	0.9459
180.4066	-292.0000	0.9519
180.5071	-292.0000	0.9534
180.6069	-292.0000	0.9485
180.7068	-292.0000	0.9487
180.8065	-292.0000	0.9512
180.9068	-292.0000	0.9513
181.0071	-292.0000	0.9533
181.1065	-292.0000	0.9497
181.2075	-292.0000	0.9498
181.3075	-292.0000	0.9542
181.4083	-292.0000	0.9563
181.5074	-292.0000	0.9565
181.6074	-292.0000	0.9542
181.7075	-292.0000	0.9569
181.8085	-292.0000	0.9567
181.9093	-292.0000	0.9585
182.0093	-292.0000	0.9571
182.1089	-292.0000	0.9572
182.2095	-292.0000	0.9563
182.3105	-292.0000	0.9520
182.4106	-292.0000	0.9525
182.5107	-292.0000	0.9598
182.6106	-292.0000	0.9580
182.7106	-292.0000	0.9562
182.8117	-292.0000	0.9530
182.9117	-292.0000	0.9517
183.0127	-292.0000	0.9563
183.1128	-292.0000	0.9572
183.2127	-292.0000	0.9517
183.3128	-292.0000	0.9512
183.4140	-292.0000	0.9548
183.5150	-292.0000	0.9542
183.6147	-292.0000	0.9572
183.7151	-292.0000	0.9564
183.8153	-292.0000	0.9590
183.9152	-292.0000	0.9594
184.0145	-292.0000	0.9539
184.1145	-292.0000	0.9531
184.2153	-292.0000	0.9585
184.3153	-292.0000	0.9624
184.4160	-292.0000	0.9600
184.5160	-292.0000	0.9514
184.6154	-292.0000	0.9515
184.7157	-292.0000	0.9579
184.8156	-292.0000	0.9553
184.9173	-292.0000	0.9512
185.0183	-292.0000	0.9503
185.1175	-292.0000	0.9518
185.2174	-292.0000	0.9563
185.3180	-292.0000	0.9534
185.4184	-292.0000	0.9554
185.5200	-292.0000	0.9569
185.6211	-292.0000	0.9543
185.7220	-292.0000	0.9547
185.8234	-292.0000	0.9511
185.9255	-292.0000	0.9509
186.0262	-292.0000	0.9528
186.1264	-292.0000	0.9533
186.2273	-292.0000	0.9534
186.3273	-292.0000	0.9522
186.4281	-292.0000	0.9539
186.5289	-292.0000	0.9531
186.6294	-292.0000	0.9532
186.7297	-292.0000	0.9491
186.8306	-292.0000	0.9541
186.9306	-292.0000	0.9583
187.0319	-292.0000	0.9530
187.1324	-292.0000	0.9564
187.2330	-292.0000	0.9578
187.3338	-292.0000	0.9575
187.4340	-292.0000	0.9571
187.5337	-292.0000	0.9550
187.6345	-292.0000	0.9545
187.7344	-292.0000	0.9589
187.8352	-292.0000	0.9575
187.9358	-292.0000	0.9529
188.0370	-292.0000	0.9556
188.1370	-292.0000	0.9547
188.2372	-292.0000	0.9576
188.3379	-292.0000	0.9572
188.4390	-292.0000	0.9548
188.5404	-292.0000	0.9558
188.6410	-292.0000	0.9547
188.7411	-292.0000	0.9547
188.8419	-292.0000	0.9551
188.9428	-292.0000	0.9497
189.0426	-292.0000	0.9556
189.1432	-292.0000	0.9519
189.2440	-292.0000	0.9511
189.3436	-292.0000	0.9535
189.4437	-292.0000	0.9551
189.5441	-292.0000	0.9510
189.6443	-292.0000	0.9519
189.7438	-292.0000	0.9525
189.8446	-292.0000	0.9531
189.9455	-292.0000	0.9546
190.0462	-292.0000	0.9535
190.1473	-292.0000	0.9491
190.2470	-292.0000	0.9522
190.3469	-292.0000	0.9506
190.4466	-292.0000	0.9499
190.5470	-292.0000	0.9494
190.6484	-292.0000	0.9479
190.7483	-292.0000	0.9496
190.8483	-292.0000	0.9498
190.9491	-292.0000	0.9466
191.0487	-292.0000	0.9453
191.1490	-292.0000	0.9495
191.2491	-292.0000	0.9498
191.3507	-292.0000	0.9478
191.4504	-292.0000	0.9434
191.5500	-292.0000	0.9492
191.6503	-292.0000	0.9491
191.7511	-292.0000	0.9475
191.8508	-292.0000	0.9500
191.9512	-292.0000	0.9468
192.0505	-292.0000	0.9474
192.1508	-292.0000	0.9477
192.2508	-292.0000	0.9472
192.3508	-292.0000	0.9484
192.4507	-292.0000	0.9495
192.5508	-292.0000	0.9490
192.6508	-292.0000	0.9468
192.7508	-292.0000	0.9491
192.8507	-292.0000	0.9464
192.9508	-292.0000	0.9475
193.0522	-292.0000	0.9495
193.1529	-292.0000	0.9493
193.2531	-292.0000	0.9479
193.3525	-292.0000	0.9529
193.4532	-292.0000	0.9528
193.5528	-292.0000	0.9523
193.6530	-292.0000	0.9573
193.7528	-292.0000	0.9591
193.8537	-292.0000	0.9562
193.9542	-292.0000	0.9537
194.0544	-292.0000	0.9528
194.1552	-292.0000	0.9545
194.2549	-292.0000	0.9544
194.3547	-292.0000	0.9549
194.4551	-292.0000	0.9534
194.5555	-292.0000	0.9565
194.6549	-292.0000	0.9567
194.7549	-292.0000	0.9548
194.8553	-292.0000	0.9543
194.9547	-292.0000	0.9551
195.0551	-292.0000	0.9585
195.1554	-292.0000	0.9609
195.2553	-292.0000	0.9565
195.3553	-292.0000	0.9586
195.4562	-292.0000	0.9580
195.5562	-292.0000	0.9577
195.6575	-292.0000	0.9547
195.7571	-292.0000	0.9562
195.8570	-292.0000	0.9568
195.9581	-292.0000	0.9564
196.0594	-292.0000	0.9546
196.1592	-292.0000	0.9565
196.2591	-292.0000	0.9563
196.3600	-292.0000	0.9539
196.4607	-292.0000	0.9568
196.5611	-292.0000	0.9572
196.6620	-292.0000	0.9554
196.7621	-292.0000	0.9577
196.8623	-292.0000	0.9550
196.9631	-292.0000	0.9528
197.0642	-292.0000	0.9521
197.1648	-292.0000	0.9565
197.2650	-292.0000	0.9506
197.3657	-292.0000	0.9542
197.4675	-292.0000	0.9498
197.5672	-292.0000	0.9534
197.6669	-292.0000	0.9500
197.7667	-292.0000	0.9539
197.8674	-292.0000	0.9537
197.9672	-292.0000	0.9538
198.0669	-292.0000	0.9548
198.1666	-292.0000	0.9558
198.2674	-292.0000	0.9538
198.3671	-292.0000	0.9507
198.4668	-292.0000	0.9558
198.5667	-292.0000	0.9517
198.6674	-292.0000	0.9476
198.7667	-292.0000	0.9517
198.8666	-292.0000	0.9521
198.9667	-292.0000	0.9568
199.0666	-292.0000	0.9573
199.1670	-292.0000	0.9550
199.2667	-292.0000	0.9543
199.3674	-292.0000	0.9552
199.4672	-292.0000	0.9531
199.5674	-292.0000	0.9562
199.6670	-292.0000	0.9550
199.7674	-292.0000	0.9548
199.8677	-292.0000	0.9530
199.9678	-292.0000	0.9554
200.0681	-292.0000	0.9530
200.1681	-292.0000	0.9510
200.2677	-292.0000	0.9516
200.3677	-292.0000	0.9549
200.4686	-292.0000	0.9519
200.5681	-292.0000	0.9531
200.6680	-292.0000	0.9527
200.7682	-292.0000	0.9538
200.8679	-292.0000	0.9492
200.9682	-292.0000	0.9533
201.0681	-292.0000	0.9518
201.1683	-292.0000	0.9513
201.2679	-292.0000	0.9529
201.3695	-292.0000	0.9531
201.4694	-292.0000	0.9511
201.5692	-292.0000	0.9502
201.6690	-292.0000	0.9502
201.7712	-292.0000	0.9489
201.8709	-292.0000	0.9514
201.9711	-292.0000	0.9530
202.0707	-292.0000	0.9534
202.1708	-292.0000	0.9553
202.2724	-292.0000	0.9552
202.3722	-292.0000	0.9541
202.4732	-292.0000	0.9557
202.5738	-292.0000	0.9555
202.6740	-292.0000	0.9529
202.7747	-292.0000	0.9512
202.8755	-292.0000	0.9541
202.9751	-292.0000	0.9545
203.0752	-292.0000	0.9562
203.1747	-292.0000	0.9558
203.2753	-292.0000	0.9547
203.3751	-292.0000	0.9535
203.4770	-292.0000	0.9563
203.5761	-292.0000	0.9574
203.6762	-292.0000	0.9516
203.7767	-292.0000	0.9530
203.8782	-292.0000	0.9555
203.9793	-292.0000	0.9530
204.0793	-292.0000	0.9527
204.1793	-292.0000	0.9523
204.2801	-292.0000	0.9493
204.3816	-292.0000	0.9529
204.4824	-292.0000	0.9496
204.5820	-292.0000	0.9515
204.6817	-292.0000	0.9537
204.7835	-292.0000	0.9523
204.8829	-292.0000	0.9540
204.9843	-292.0000	0.9522
205.0845	-292.0000	0.9515
205.1843	-292.0000	0.9503
205.2855	-292.0000	0.9518
205.3852	-292.0000	0.9509
205.4853	-292.0000	0.9519
205.5853	-292.0000	0.9525
205.6850	-292.0000	0.9524
205.7853	-292.0000	0.9537
205.8848	-292.0000	0.9541
205.9854	-292.0000	0.9548
206.0852	-292.0000	0.9537
206.1850	-292.0000	0.9543
206.2855	-292.0000	0.9490
206.3847	-292.0000	0.9517
206.4850	-292.0000	0.9527
206.5859	-292.0000	0.9508
206.6866	-292.0000	0.9512
206.7861	-292.0000	0.9513
206.8867	-292.0000	0.9514
206.9874	-292.0000	0.9564
207.0879	-292.0000	0.9517
207.1887	-292.0000	0.9508
207.2892	-292.0000	0.9525
207.3896	-292.0000	0.9543
207.4888	-292.0000	0.9566
207.5891	-292.0000	0.9472
207.6890	-292.0000	0.9531
207.7887	-292.0000	0.9528
207.8898	-292.0000	0.9550
207.9902	-292.0000	0.9537
208.0901	-292.0000	0.9514
208.1900	-292.0000	0.9523
208.2903	-292.0000	0.9570
208.3897	-292.0000	0.9534
208.4902	-292.0000	0.9527
208.5906	-292.0000	0.9560
208.6904	-292.0000	0.9587
208.7898	-292.0000	0.9554
208.8915	-292.0000	0.9546
208.9909	-292.0000	0.9505
209.0909	-292.0000	0.9536
209.1917	-292.0000	0.9560
209.2918	-292.0000	0.9530
209.3920	-292.0000	0.9542
209.4921	-292.0000	0.9555
209.5933	-292.0000	0.9551
209.6930	-292.0000	0.9569
209.7932	-292.0000	0.9516
209.8934	-292.0000	0.9547
209.9943	-292.0000	0.9519
210.0939	-292.0000	0.9558
210.1946	-292.0000	0.9536
210.2958	-292.0000	0.9552
210.3965	-292.0000	0.9564
210.4964	-292.0000	0.9558
210.5974	-292.0000	0.9515
210.6987	-292.0000	0.9557
210.7992	-292.0000	0.9540
210.8988	-292.0000	0.9590
210.9993	-292.0000	0.9541
211.1006	-292.0000	0.9551
211.1997	-292.0000	0.9548
211.2998	-292.0000	0.9596
211.4005	-292.0000	0.9567
211.5003	-292.0000	0.9519
211.6000	-292.0000	0.9571
211.7013	-292.0000	0.9590
211.8012	-292.0000	0.9642
211.9015	-292.0000	0.9547
212.0009	-292.0000	0.9565
212.1014	-292.0000	0.9584
212.2033	-292.0000	0.9600
212.3033	-292.0000	0.9549
212.4049	-292.0000	0.9542
212.5039	-292.0000	0.9545
212.6053	-292.0000	0.9570
212.7050	-292.0000	0.9552
212.8060	-292.0000	0.9541
212.9068	-292.0000	0.9548
213.0074	-292.0000	0.9580
213.1069	-292.0000	0.9580
213.2071	-292.0000	0.9569
213.3075	-292.0000	0.9543
213.4076	-292.0000	0.9547
213.5069	-292.0000	0.9570
213.6071	-292.0000	0.9576
213.7070	-292.0000	0.9521
213.8068	-292.0000	0.9563
213.9070	-292.0000	0.9589
214.0078	-292.0000	0.9557
214.1088	-292.0000	0.9544
214.2088	-292.0000	0.9547
214.3094	-292.0000	0.9520
214.4087	-292.0000	0.9588
214.5096	-292.0000	0.9581
214.6096	-292.0000	0.9585
214.7096	-292.0000	0.9598
214.8096	-292.0000	0.9617
214.9093	-292.0000	0.9599
215.0092	-292.0000	0.9534
215.1091	-292.0000	0.9577
215.2093	-292.0000	0.9562
215.3092	-292.0000	0.9580
215.4088	-292.0000	0.9546
215.5088	-292.0000	0.9569
215.6096	-292.0000	0.9542
215.7098	-292.0000	0.9553
215.8107	-292.0000	0.9569
215.9108	-292.0000	0.9543
216.0108	-292.0000	0.9570
216.1114	-292.0000	0.9578
216.2110	-292.0000	0.9544
216.3111	-292.0000	0.9528
216.4111	-292.0000	0.9548
216.5111	-292.0000	0.9601
216.6108	-292.0000	0.9523
216.7120	-292.0000	0.9542
216.8119	-292.0000	0.9530
216.9126	-292.0000	0.9537
217.0124	-292.0000	0.9554
217.1121	-292.1650	0.9537
217.2332	-292.5470	0.9546
217.3346	-293.2310	0.9544
217.4342	-293.8810	0.9577
217.5341	-294.5670	0.9548
217.6348	-295.2510	0.9507
217.7355	-295.9000	0.9505
217.8359	-296.5840	0.9271
217.9363	-297.2330	0.9292
218.0361	-297.9170	0.9128
218.1364	-298.5660	0.8937
218.2367	-299.2500	0.8761
218.3359	-299.8950	0.8523
218.4373	-300.0010	0.8306
218.5376	-300.0010	0.8052
218.6378	-300.0010	0.7790
218.7380	-300.0010	0.7463
218.8381	-300.0010	0.7096
218.9380	-300.0010	0.6730
219.0384	-300.0010	0.6704
219.1388	-300.0010	0.6521
219.2388	-300.0010	0.6545
219.3398	-300.0010	0.6531
219.4407	-300.0000	0.6590
219.5406	-300.0000	0.6650
219.6404	-300.0000	0.6602
219.7401	-300.0000	0.6588
219.8418	-300.0000	0.6626
219.9412	-300.0000	0.6608
220.0411	-300.0000	0.6612
220.1412	-300.0000	0.6628
220.2410	-300.0000	0.6606
220.3412	-300.0000	0.6636
220.4411	-300.0000	0.6623
220.5424	-300.0000	0.6645
220.6427	-300.0000	0.6635
220.7420	-300.0000	0.6629
220.8426	-300.0000	0.6617
220.9426	-300.0000	0.6660
221.0428	-300.0000	0.6686
221.1432	-300.0000	0.6655
221.2434	-300.0000	0.6653
221.3429	-300.0000	0.6644
221.4433	-300.0000	0.6681
221.5445	-300.0000	0.6680
221.6444	-300.0000	0.6662
221.7450	-300.0000	0.6641
221.8458	-300.0000	0.6660
221.9456	-300.0000	0.6676
222.0450	-300.0000	0.6665
222.1454	-300.0000	0.6672
222.2451	-300.0000	0.6713
222.3463	-300.0000	0.6695
222.4471	-300.0000	0.6686
222.5480	-300.0000	0.6664
222.6483	-300.0000	0.6660
222.7486	-300.0000	0.6660
222.8489	-300.0000	0.6664
222.9505	-300.0000	0.6667
223.0503	-300.0000	0.6707
223.1504	-300.0000	0.6720
223.2504	-300.0000	0.6692
223.3517	-300.0000	0.6688
223.4521	-300.0000	0.6712
223.5524	-300.0000	0.6721
223.6539	-300.0000	0.6703
223.7545	-300.0000	0.6662
223.8546	-300.0000	0.6685
223.9553	-300.0000	0.6704
224.0549	-300.0000	0.6730
224.1566	-300.0000	0.6700
224.2564	-300.0000	0.6696
224.3563	-300.0000	0.6736
224.4573	-300.0000	0.6726
224.5578	-300.0000	0.6715
224.6577	-300.0000	0.6709
224.7575	-300.0000	0.6738
224.8580	-300.0000	0.6694
224.9590	-300.0000	0.6710
225.0596	-300.0000	0.6716
225.1605	-300.0000	0.6734
225.2618	-300.0000	0.6714
225.3612	-300.0000	0.6664
225.4615	-300.0000	0.6708
225.5616	-300.0000	0.6713
225.6612	-300.0000	0.6714
225.7613	-300.0000	0.6693
225.8610	-300.0000	0.6701
225.9614	-300.0000	0.6723
226.0618	-300.0000	0.6714
226.1613	-300.0000	0.6705
226.2625	-300.0000	0.6696
226.3619	-300.0000	0.6711
226.4620	-300.0000	0.6698
226.5628	-300.0000	0.6730
226.6627	-300.0000	0.6715
226.7632	-300.0000	0.6714
226.8635	-300.0000	0.6721
226.9632	-300.0000	0.6727
227.0636	-300.0000	0.6698
227.1636	-300.0000	0.6703
227.2637	-300.0000	0.6734
227.3647	-300.0000	0.6716
227.4644	-300.0000	0.6695
227.5659	-300.0000	0.6716
227.6654	-300.0000	0.6709
227.7655	-300.0000	0.6702
227.8652	-300.0000	0.6752
227.9655	-300.0000	0.6714
228.0660	-300.0000	0.6710
228.1665	-300.0000	0.6684
228.2666	-300.0000	0.6699
228.3668	-300.0000	0.6723
228.4664	-300.0000	0.6737
228.5665	-300.0000	0.6730
228.6661	-300.0000	0.6730
228.7663	-300.0000	0.6752
228.8668	-300.0000	0.6747
228.9660	-300.0000	0.6731
229.0664	-300.0000	0.6726
229.1664	-300.0000	0.6716
229.2667	-300.0000	0.6710
229.3670	-300.0000	0.6772
229.4675	-300.0000	0.6743
229.5677	-300.0000	0.6758
229.6679	-300.0000	0.6778
229.7673	-300.0000	0.6736
229.8675	-300.0000	0.6725
229.9675	-300.0000	0.6748
230.0680	-300.0000	0.6734
230.1696	-300.0000	0.6728
230.2702	-300.0000	0.6751
230.3709	-300.0000	0.6754
230.4708	-300.1400	0.6734
230.5913	-300.5530	0.6761
230.6918	-301.2380	0.6782
230.7912	-301.8880	0.6780
230.8913	-302.5720	0.6747
230.9913	-303.2210	0.6724
231.0929	-303.9050	0.6751
231.1928	-304.5550	0.6589
231.2922	-305.2380	0.6313
231.3932	-305.8880	0.5782
231.4935	-306.5740	0.5157
231.5936	-307.2230	0.4496
231.6937	-307.9070	0.3806
231.7930	-308.5560	0.3033
231.8937	-309.2390	0.2181
231.9937	-309.8890	0.1232
232.0933	-310.5730	0.0147
232.1934	-311.2220	-0.1076
232.2933	-311.9060	-0.2423
232.3937	-312.5550	-0.3934
232.4932	-313.2390	-0.5632
232.5939	-313.8890	-0.7559
232.6943	-314.5720	-0.9742
232.7958	-315.2560	-1.2132
232.8955	-315.9050	-1.4889
232.9956	-316.5880	-1.8055
233.0969	-316.8020	-2.1632
233.1969	-316.8010	-2.5664
233.2961	-316.8010	-3.0299
233.3974	-316.8010	-3.5565
233.4981	-316.8010	-4.1527
233.5987	-316.8010	-4.8304
233.6982	-316.8010	-5.5852
233.8000	-316.8010	-5.6221
233.8993	-316.8010	-5.2203
233.9997	-316.8010	-5.0168
234.0991	-316.8000	-4.8793
234.1995	-316.8000	-4.7783
234.2999	-316.8000	-4.7000
234.3990	-316.8000	-4.6333
234.5000	-316.8000	-4.5835
234.6014	-316.8000	-4.5339
234.7013	-316.8000	-4.4939
234.8013	-316.8000	-4.4515
234.9029	-316.8000	-4.4176
235.0022	-316.8000	-4.3896
235.1029	-316.8000	-4.3605
235.2030	-316.8000	-4.3367
235.3023	-316.8000	-4.3123
235.4038	-316.8000	-4.2914
235.5037	-316.8000	-4.2714
235.6035	-316.8000	-4.2508
235.7039	-316.8000	-4.2339
235.8044	-316.8000	-4.2168
235.9048	-316.8000	-4.1979
236.0043	-316.8000	-4.1841
236.1049	-316.8000	-4.1693
236.2049	-316.8000	-4.1550
236.3047	-316.8000	-4.1418
236.4055	-316.8000	-4.1293
236.5070	-316.8000	-4.1171
236.6071	-316.8000	-4.1034
236.7072	-316.8000	-4.0952
236.8073	-316.8000	-4.0829
236.9073	-316.8000	-4.0718
237.0082	-316.8000	-4.0612
237.1094	-316.8000	-4.0514
237.2097	-316.8000	-4.0411
237.3107	-316.8000	-4.0312
237.4107	-316.8000	-4.0216
237.5116	-316.8000	-4.0119
237.6113	-316.8000	-4.0022
237.7112	-316.8000	-3.9965
237.8130	-316.8000	-3.9856
237.9139	-316.8000	-3.9783
238.0149	-316.8000	-3.9749
238.1147	-316.8000	-3.9661
238.2158	-316.8000	-3.9584
238.3157	-316.8000	-3.9518
238.4163	-316.8000	-3.9457
238.5177	-316.8000	-3.9387
238.6190	-316.8000	-3.9319
238.7189	-316.8000	-3.9253
238.8183	-316.8000	-3.9196
238.9196	-316.8000	-3.9142
239.0202	-316.8000	-3.9096
239.1212	-316.8000	-3.9010
239.2227	-316.8000	-3.8937
239.3227	-316.8000	-3.8912
239.4230	-316.8000	-3.8826
239.5224	-316.8000	-3.8772
239.6227	-316.8000	-3.8719
239.7230	-316.8000	-3.8685
239.8228	-316.8000	-3.8600
239.9222	-316.8000	-3.8553
240.0223	-316.8000	-3.8520
240.1221	-316.8000	-3.8461
240.2235	-316.8000	-3.8404
240.3249	-316.8000	-3.8400
240.4251	-316.8000	-3.8342
240.5262	-316.8000	-3.8290
240.6269	-316.8000	-3.8282
240.7270	-316.8000	-3.8220
240.8270	-316.8000	-3.8173
240.9274	-316.8000	-3.8165
241.0280	-316.8000	-3.8091
241.1281	-316.8000	-3.8048
241.2292	-316.8000	-3.8025
241.3297	-316.8000	-3.7976
241.4298	-316.8000	-3.7961
241.5299	-316.8000	-3.7899
241.6292	-316.8000	-3.7884
241.7297	-316.8000	-3.7806
241.8301	-316.8000	-3.7827
241.9304	-316.8000	-3.7756
242.0311	-316.8000	-3.7730
242.1314	-316.8000	-3.7684
242.2315	-316.8000	-3.7669
242.3317	-316.8000	-3.7585
242.4315	-316.8000	-3.7562
242.5313	-316.8000	-3.7539
242.6314	-316.8000	-3.7506
242.7314	-316.8000	-3.7477
242.8318	-316.8000	-3.7424
242.9314	-316.8000	-3.7405
243.0314	-316.8000	-3.7383
243.1312	-316.8000	-3.7324
243.2327	-316.8000	-3.7326
243.3322	-316.8000	-3.7260
243.4340	-316.8000	-3.7283
243.5334	-316.8000	-3.7231
243.6341	-316.8000	-3.7206
243.7339	-316.8000	-3.7168
243.8339	-316.8000	-3.7177
243.9333	-316.8000	-3.7124
244.0338	-316.8000	-3.7089
244.1351	-316.8000	-3.7043
244.2357	-316.8000	-3.7022
244.3348	-316.8000	-3.7002
244.4353	-316.8000	-3.6977
244.5352	-316.8000	-3.6936
244.6357	-316.8000	-3.6881
244.7352	-316.8000	-3.6871
244.8357	-316.8000	-3.6861
244.9352	-316.8000	-3.6850
245.0361	-316.8000	-3.6797
245.1362	-316.8000	-3.6776
245.2367	-316.8000	-3.6732
245.3379	-316.8000	-3.6698
245.4377	-316.8000	-3.6696
245.5379	-316.8000	-3.6655
245.6387	-316.8000	-3.6634
245.7392	-316.8000	-3.6603
245.8399	-316.8000	-3.6578
245.9397	-316.8000	-3.6604
246.0407	-316.8000	-3.6551
246.1421	-316.8000	-3.6536
246.2414	-316.8000	-3.6498
246.3430	-316.8000	-3.6499
246.4438	-316.8000	-3.6461
246.5438	-316.8000	-3.6446
246.6434	-316.8000	-3.6450
246.7437	-316.8000	-3.6434
246.8438	-316.8000	-3.6397
246.9438	-316.8000	-3.6372
247.0435	-316.8000	-3.6343
247.1438	-316.8000	-3.6332
247.2433	-316.8000	-3.6301
247.3435	-316.8000	-3.6279
247.4449	-316.8000	-3.6282
247.5447	-316.8000	-3.6271
247.6452	-316.8000	-3.6204
247.7458	-316.8000	-3.6218
247.8455	-316.8000	-3.6164
247.9454	-316.8000	-3.6142
248.0463	-316.8000	-3.6126
248.1467	-316.8000	-3.6142
248.2472	-316.8000	-3.6093
248.3475	-316.8000	-3.6065
248.4474	-316.8000	-3.6065
248.5472	-316.8000	-3.6064
248.6477	-316.8000	-3.6001
248.7480	-316.8000	-3.6037
248.8480	-316.8000	-3.5979
248.9474	-316.8000	-3.5973
249.0473	-316.8000	-3.5982
249.1474	-316.8000	-3.5917
249.2476	-316.8000	-3.5935
249.3478	-316.8000	-3.5884
249.4480	-316.8000	-3.5916
249.5483	-316.8000	-3.5868
249.6493	-316.8000	-3.5883
249.7501	-316.8000	-3.5820
249.8501	-316.8000	-3.5799
249.9509	-316.8000	-3.5782
250.0507	-316.8000	-3.5787
250.1512	-316.8000	-3.5727
250.2504	-316.8000	-3.5713
250.3509	-316.8000	-3.5710
250.4508	-316.8000	-3.5719
250.5503	-316.8000	-3.5679
250.6517	-316.8000	-3.5646
250.7515	-316.8000	-3.5665
250.8514	-316.8000	-3.5633
250.9515	-316.8000	-3.5661
251.0520	-316.8000	-3.5609
251.1513	-316.8000	-3.5607
251.2515	-316.8000	-3.5604
251.3529	-316.8000	-3.5591
251.4528	-316.8000	-3.5565
251.5525	-316.8000	-3.5521
251.6542	-316.8000	-3.5522
251.7535	-316.8000	-3.5496
251.8535	-316.8000	-3.5468
251.9535	-316.8000	-3.5484
252.0552	-316.8000	-3.5445
252.1568	-316.8000	-3.5468
252.2563	-316.8000	-3.5391
252.3567	-316.8000	-3.5423
252.4564	-316.8000	-3.5371
252.5574	-316.8000	-3.5373
252.6578	-316.8000	-3.5360
252.7578	-316.8000	-3.5332
252.8602	-316.8000	-3.5322
252.9598	-316.8000	-3.5297
253.0597	-316.8000	-3.5275
253.1598	-316.8000	-3.5273
253.2602	-316.8000	-3.5275
253.3603	-316.8000	-3.5252
253.4608	-316.8000	-3.5249
253.5604	-316.8000	-3.5259
253.6608	-316.8000	-3.5258
253.7620	-316.8000	-3.5247
253.8616	-316.8000	-3.5227
253.9620	-316.8000	-3.5194
254.0621	-316.8000	-3.5205
254.1622	-316.8000	-3.5169
254.2626	-316.8000	-3.5182
254.3635	-316.8000	-3.5143
254.4636	-316.8000	-3.5168
254.5636	-316.8000	-3.5121
254.6648	-316.8000	-3.5120
254.7664	-316.8000	-3.5092
254.8669	-316.8000	-3.5061
254.9677	-316.8000	-3.5088
255.0682	-316.8000	-3.5057
255.1674	-316.8000	-3.5050
255.2679	-316.8000	-3.5036
255.3677	-316.8000	-3.4993
255.4678	-316.8000	-3.4992
255.5676	-316.8000	-3.4999
255.6693	-316.8000	-3.4966
255.7685	-316.8000	-3.4970
255.8689	-316.8000	-3.4967
255.9684	-316.8000	-3.4949
256.0689	-316.8000	-3.4940
256.1688	-316.8000	-3.4908
256.2688	-316.8000	-3.4927
256.3684	-316.8000	-3.4916
256.4694	-316.8000	-3.4890
256.5701	-316.8000	-3.4851
256.6697	-316.8000	-3.4876
256.7694	-316.8000	-3.4867
256.8704	-316.8000	-3.4864
256.9714	-316.8000	-3.4833
257.0723	-316.8000	-3.4806
257.1715	-316.8000	-3.4812
257.2722	-316.8000	-3.4797
257.3716	-316.8000	-3.4802
257.4720	-316.8000	-3.4786
257.5727	-316.8000	-3.4796
257.6732	-316.8000	-3.4775
257.7727	-316.8000	-3.4784
257.8731	-316.8000	-3.4758
257.9729	-316.8000	-3.4748
258.0743	-316.8000	-3.4730
258.1753	-316.8000	-3.4727
258.2752	-316.8000	-3.4704
258.3751	-316.8000	-3.4691
258.4748	-316.8000	-3.4668
258.5747	-316.8000	-3.4630
258.6746	-316.8000	-3.4655
258.7746	-316.8000	-3.4636
258.8745	-316.8000	-3.4638
258.9752	-316.8000	-3.4584
259.0749	-316.8000	-3.4613
259.1751	-316.8000	-3.4593
259.2749	-316.8000	-3.4583
259.3746	-316.8000	-3.4572
259.4743	-316.8000	-3.4558
259.5751	-316.8000	-3.4538
259.6748	-316.8000	-3.4511
259.7746	-316.8000	-3.4525
259.8763	-316.8000	-3.4495
259.9760	-316.8000	-3.4488
260.0757	-316.8000	-3.4491
260.1762	-316.8000	-3.4479
260.2765	-316.8000	-3.4459
260.3766	-316.8000	-3.4414
260.4772	-316.8000	-3.4430
260.5766	-316.8000	-3.4451
260.6776	-316.8000	-3.4424
260.7791	-316.8000	-3.4416
260.8791	-316.8000	-3.4401
260.9792	-316.8000	-3.4401
261.0799	-316.8000	-3.4415
261.1803	-316.8000	-3.4385
261.2806	-316.8000	-3.4391
261.3820	-316.8000	-3.4382
261.4816	-316.8000	-3.4352
261.5817	-316.8000	-3.4358
261.6815	-316.8000	-3.4343
261.7830	-316.8000	-3.4327
261.8831	-316.8000	-3.4286
261.9830	-316.8000	-3.4321
262.0833	-316.8000	-3.4326
262.1839	-316.8000	-3.4301
262.2841	-316.8000	-3.4275
262.3841	-316.8000	-3.4297
262.4837	-316.8000	-3.4287
262.5841	-316.8000	-3.4231
262.6839	-316.8000	-3.4244
262.7838	-316.8000	-3.4238
262.8846	-316.8000	-3.4260
262.9848	-316.8000	-3.4238
263.0854	-316.8000	-3.4238
263.1855	-316.8000	-3.4212
263.2862	-316.8000	-3.4223
263.3866	-316.8000	-3.4178
263.4872	-316.8000	-3.4171
263.5868	-316.8000	-3.4192
263.6866	-316.8000	-3.4195
263.7866	-316.8000	-3.4173
263.8867	-316.8000	-3.4145
263.9873	-316.8000	-3.4118
264.0871	-316.8000	-3.4119
264.1873	-316.8000	-3.4101
264.2874	-316.8000	-3.4103
264.3877	-316.8000	-3.4115
264.4875	-316.8000	-3.4113
264.5883	-316.8000	-3.4075
264.6880	-316.8000	-3.4038
264.7879	-316.8000	-3.4090
264.8875	-316.8000	-3.4048
264.9891	-316.8000	-3.4060
265.0888	-316.8000	-3.4030
265.1890	-316.8000	-3.4044
265.2890	-316.8000	-3.3996
265.3900	-316.8000	-3.3977
265.4898	-316.8000	-3.3993
265.5898	-316.8000	-3.3997
265.6900	-316.8000	-3.3982
265.7905	-316.8000	-3.3979
265.8910	-316.8000	-3.3994
265.9913	-316.8000	-3.3996
266.0917	-316.8000	-3.3977
266.1912	-316.8000	-3.3980
266.2910	-316.8000	-3.3967
266.3911	-316.8000	-3.3958
266.4908	-316.8000	-3.3959
266.5914	-316.8000	-3.3942
266.6915	-316.8000	-3.3946
266.7929	-316.8000	-3.3909
266.8937	-316.8000	-3.3909
266.9940	-316.8000	-3.3870
267.0945	-316.8000	-3.3904
267.1970	-316.8000	-3.3860
267.2972	-316.8000	-3.3878
267.3970	-316.8000	-3.3833
267.4977	-316.8000	-3.3856
267.5977	-316.8000	-3.3868
267.6984	-316.8000	-3.3845
267.7990	-316.8000	-3.3854
267.9011	-316.8000	-3.3842
267.9999	-316.8000	-3.3821
268.0999	-316.8000	-3.3799
268.1995	-316.8000	-3.3815
268.3002	-316.8000	-3.3824
268.4005	-316.8000	-3.3791
268.5020	-316.8000	-3.3789
268.6040	-316.8000	-3.3782
268.7041	-316.8000	-3.3796
268.8036	-316.8000	-3.3760
268.9051	-316.8000	-3.3748
269.0061	-316.8000	-3.3725
269.1063	-316.8000	-3.3742
269.2060	-316.8000	-3.3721
269.3074	-316.8000	-3.3682
269.4070	-316.8000	-3.3671
269.5069	-316.8000	-3.3717
269.6066	-316.8000	-3.3697
269.7090	-316.8000	-3.3651
269.8086	-316.8000	-3.3693
269.9091	-316.8000	-3.3698
270.0088	-316.8000	-3.3669
270.1100	-316.8000	-3.3694
270.2104	-316.8000	-3.3647
270.3110	-316.8000	-3.3643
270.4111	-316.8000	-3.3655
270.5106	-316.8000	-3.3615
270.6110	-316.8000	-3.3625
270.7121	-316.8000	-3.3648
270.8118	-316.8000	-3.3635
270.9131	-316.8000	-3.3588
271.0132	-316.8000	-3.3649
271.1140	-316.8000	-3.3592
271.2140	-316.8000	-3.3586
271.3140	-316.8000	-3.3603
271.4135	-316.8000	-3.3548
271.5141	-316.8000	-3.3556
271.6136	-316.8000	-3.3566
271.7138	-316.8000	-3.3526
271.8144	-316.8000	-3.3566
271.9138	-316.8000	-3.3555
272.0135	-316.8000	-3.3504
272.1151	-316.8000	-3.3516
272.2153	-316.8000	-3.3489
272.3152	-316.8000	-3.3479
272.4146	-316.8000	-3.3488
272.5147	-316.8000	-3.3500
272.6153	-316.8000	-3.3480
272.7152	-316.8000	-3.3481
272.8157	-316.8000	-3.3501
272.9156	-316.8000	-3.3490
273.0157	-316.8000	-3.3500
273.1167	-316.8000	-3.3474
273.2170	-316.8000	-3.3463
273.3168	-316.8000	-3.3451
273.4177	-316.8000	-3.3435
273.5186	-316.8000	-3.3434
273.6194	-316.8000	-3.3417
273.7194	-316.8000	-3.3422
273.8195	-316.8000	-3.3396
273.9201	-316.8000	-3.3390
274.0202	-316.8000	-3.3409
274.1200	-316.8000	-3.3422
274.2199	-316.8000	-3.3372
274.3204	-316.8000	-3.3375
274.4198	-316.8000	-3.3386
274.5197	-316.8000	-3.3387
274.6211	-316.8000	-3.3388
274.7214	-316.8000	-3.3395
274.8215	-316.8000	-3.3376
274.9213	-316.8000	-3.3350
275.0215	-316.8000	-3.3374
275.1207	-316.8000	-3.3342
275.2213	-316.8000	-3.3344
275.3207	-316.8000	-3.3332
275.4215	-316.8000	-3.3350
275.5211	-316.8000	-3.3345
275.6221	-316.8000	-3.3335
275.7241	-316.8000	-3.3326
275.8237	-316.8000	-3.3315
275.9240	-316.8000	-3.3318
276.0239	-316.8000	-3.3310
276.1245	-316.8000	-3.3279
276.2247	-316.8000	-3.3290
276.3246	-316.8000	-3.3298
276.4251	-316.8000	-3.3265
276.5254	-316.8000	-3.3305
276.6253	-316.8000	-3.3285
276.7261	-316.8000	-3.3275
276.8261	-316.8000	-3.3231
276.9263	-316.8000	-3.3255
277.0263	-316.8000	-3.3252
277.1267	-316.8000	-3.3265
277.2272	-316.8000	-3.3227
277.3276	-316.8000	-3.3216
277.4280	-316.8000	-3.3207
277.5278	-316.8000	-3.3225
277.6292	-316.8000	-3.3218
277.7289	-316.8000	-3.3185
277.8291	-316.8000	-3.3182
277.9289	-316.8000	-3.3178
278.0290	-316.8000	-3.3184
278.1288	-316.8000	-3.3136
278.2296	-316.8000	-3.3153
278.3305	-316.8000	-3.3157
278.4301	-316.8000	-3.3131
278.5305	-316.8000	-3.3136
278.6308	-316.8000	-3.3151
278.7315	-316.8000	-3.3132
278.8324	-316.8000	-3.3119
278.9316	-316.8000	-3.3100
279.0323	-316.8000	-3.3085
279.1319	-316.8000	-3.3101
279.2318	-316.8000	-3.3106
279.3318	-316.8000	-3.3064
279.4319	-316.8000	-3.3094
279.5317	-316.8000	-3.3084
279.6319	-316.8000	-3.3076
279.7317	-316.8000	-3.3061
279.8318	-316.8000	-3.3064
279.9335	-316.8000	-3.3061
280.0328	-316.8000	-3.3028
280.1338	-316.8000	-3.3024
280.2343	-316.8000	-3.3025
280.3342	-316.8000	-3.3034
280.4340	-316.8000	-3.3032
280.5338	-316.8000	-3.3002
280.6355	-316.8000	-3.3004
280.7353	-316.8000	-3.3029
280.8352	-316.8000	-3.3021
280.9354	-316.8000	-3.3014
281.0355	-316.8000	-3.3035
281.1350	-316.8000	-3.3016
281.2358	-316.8000	-3.3003
281.3363	-316.8000	-3.3019
281.4365	-316.8000	-3.2993
281.5360	-316.8000	-3.2980
281.6357	-316.8000	-3.2984
281.7360	-316.8000	-3.2988
281.8357	-316.8000	-3.2975
281.9360	-316.8000	-3.2986
282.0374	-316.8000	-3.2984
282.1373	-316.8000	-3.2964
282.2376	-316.8000	-3.2963
282.3381	-316.8000	-3.2941
282.4391	-316.8000	-3.2919
282.5409	-316.8000	-3.2937
282.6398	-316.8000	-3.2919
282.7401	-316.8000	-3.2946
282.8399	-316.8000	-3.2931
282.9413	-316.8000	-3.2924
283.0412	-316.8000	-3.2925
283.1412	-316.8000	-3.2880
283.2410	-316.8000	-3.2931
283.3416	-316.8000	-3.2876
283.4421	-316.8000	-3.2910
283.5433	-316.8000	-3.2869
283.6434	-316.8000	-3.2858
283.7437	-316.8000	-3.2898
283.8440	-316.8000	-3.2882
283.9442	-316.8000	-3.2849
284.0452	-316.8000	-3.2849
284.1454	-316.8000	-3.2864
284.2450	-316.8000	-3.2844
284.3452	-316.8000	-3.2847
284.4455	-316.8000	-3.2806
284.5450	-316.8000	-3.2864
284.6449	-316.8000	-3.2815
284.7455	-316.8000	-3.2861
284.8456	-316.8000	-3.2823
284.9453	-316.8000	-3.2845
285.0460	-316.8000	-3.2783
285.1473	-316.8000	-3.2806
285.2477	-316.8000	-3.2809
285.3483	-316.8000	-3.2775
285.4480	-316.8000	-3.2749
285.5480	-316.8000	-3.2788
285.6484	-316.8000	-3.2782
285.7499	-316.8000	-3.2760
285.8489	-316.8000	-3.2762
285.9506	-316.8000	-3.2770
286.0500	-316.8000	-3.2753
286.1511	-316.8000	-3.2750
286.2516	-316.8000	-3.2731
286.3519	-316.8000	-3.2731
286.4533	-316.8000	-3.2747
286.5528	-316.8000	-3.2751
286.6536	-316.8000	-3.2765
286.7541	-316.8000	-3.2749
286.8549	-316.8000	-3.2729
286.9559	-316.8000	-3.2695
287.0567	-316.8000	-3.2707
287.1572	-316.8000	-3.2733
287.2572	-316.8000	-3.2680
287.3573	-316.8000	-3.2699
287.4567	-316.8000	-3.2727
287.5578	-316.8000	-3.2682
287.6589	-316.8000	-3.2704
287.7590	-316.8000	-3.2677
287.8594	-316.8000	-3.2670
287.9590	-316.8000	-3.2716
288.0591	-316.8000	-3.2682
288.1588	-316.8000	-3.2689
288.2594	-316.8000	-3.2684
288.3592	-316.8000	-3.2666
288.4593	-316.8000	-3.2708
288.5590	-316.8000	-3.2605
288.6597	-316.8000	-3.2679
288.7597	-316.8000	-3.2664
288.8609	-316.8000	-3.2623
288.9611	-316.8000	-3.2658
289.0612	-316.8000	-3.2631
289.1615	-316.8000	-3.2606
289.2614	-316.8000	-3.2637
289.3622	-316.8000	-3.2623
289.4620	-316.8000	-3.2604
289.5620	-316.8000	-3.2620
289.6619	-316.8000	-3.2608
289.7620	-316.8000	-3.2607
289.8620	-316.8000	-3.2596
289.9631	-316.8000	-3.2614
290.0639	-316.8000	-3.2584
290.1644	-316.8000	-3.2601
290.2645	-316.8000	-3.2614
290.3655	-316.8000	-3.2614
290.4649	-316.8000	-3.2610
290.5664	-316.8000	-3.2594
290.6662	-316.8000	-3.2593
290.7662	-316.8000	-3.2585
290.8666	-316.8000	-3.2584
290.9660	-316.8000	-3.2594
291.0661	-316.8000	-3.2563
291.1673	-316.8000	-3.2568
291.2670	-316.8000	-3.2537
291.3667	-316.8000	-3.2572
291.4672	-316.8000	-3.2545
291.5673	-316.8000	-3.2527
291.6674	-316.8000	-3.2522
291.7681	-316.8000	-3.2497
291.8687	-316.8000	-3.2514
291.9684	-316.8000	-3.2533
292.0693	-316.8000	-3.2541
292.1700	-316.8000	-3.2526
292.2715	-316.8000	-3.2519
292.3716	-316.8000	-3.2507
292.4713	-316.8000	-3.2483
292.5710	-316.8000	-3.2497
292.6723	-316.8000	-3.2460
292.7733	-316.8000	-3.2486
292.8744	-316.8000	-3.2488
292.9740	-316.8000	-3.2465
293.0746	-316.8000	-3.2419
293.1757	-316.8000	-3.2447
293.2752	-316.8000	-3.2463
293.3752	-316.8000	-3.2448
293.4749	-316.8000	-3.2459
293.5748	-316.8000	-3.2422
293.6764	-316.8000	-3.2414
293.7761	-316.8000	-3.2428
293.8763	-316.8000	-3.2417
293.9765	-316.8000	-3.2418
294.0760	-316.8000	-3.2428
294.1762	-316.8000	-3.2420
294.2766	-316.8000	-3.2416
294.3778	-316.8000	-3.2422
294.4774	-316.8000	-3.2402
294.5775	-316.8000	-3.2382
294.6783	-316.8000	-3.2418
294.7785	-316.8000	-3.2367
294.8790	-316.8000	-3.2392
294.9794	-316.8000	-3.2389
295.0793	-316.8000	-3.2410
295.1798	-316.8000	-3.2406
295.2793	-316.8000	-3.2409
295.3798	-316.8000	-3.2388
295.4796	-316.8000	-3.2384
295.5797	-316.8000	-3.2373
295.6789	-316.8000	-3.2379
295.7798	-316.8000	-3.2366
295.8799	-316.8000	-3.2364
295.9805	-316.8000	-3.2355
296.0800	-316.8000	-3.2373
296.1799	-316.8000	-3.2357
296.2808	-316.8000	-3.2351
296.3810	-316.8000	-3.2350
296.4816	-316.8000	-3.2341
296.5826	-316.8000	-3.2363
296.6822	-316.8000	-3.2355
296.7827	-316.8000	-3.2364
296.8822	-316.8000	-3.2338
296.9819	-316.8000	-3.2296
297.0824	-316.8000	-3.2318
297.1829	-316.8000	-3.2300
297.2830	-316.8000	-3.2310
297.3842	-316.8000	-3.2302
297.4844	-316.8000	-3.2306
297.5844	-316.8000	-3.2316
297.6844	-316.8000	-3.2296
297.7844	-316.8000	-3.2282
297.8854	-316.8000	-3.2290
297.9859	-316.8000	-3.2273
298.0866	-316.8000	-3.2269
298.1865	-316.8000	-3.2277
298.2864	-316.8000	-3.2250
298.3866	-316.8000	-3.2269
298.4866	-316.8000	-3.2260
298.5865	-316.8000	-3.2245
298.6874	-316.8000	-3.2255
298.7875	-316.8000	-3.2264
298.8889	-316.8000	-3.2234
298.9891	-316.8000	-3.2244
299.0897	-316.8000	-3.2247
299.1893	-316.8000	-3.2261
299.2901	-316.8000	-3.2233
299.3904	-316.8000	-3.2222
299.4904	-316.8000	-3.2241
299.5905	-316.8000	-3.2240
299.6911	-316.8000	-3.2214
299.7918	-316.8000	-3.2230
299.8925	-316.8000	-3.2218
299.9934	-316.8000	-3.2230
300.0948	-316.8000	-3.2223
300.1940	-316.8000	-3.2205
300.2940	-316.8000	-3.2190
300.3944	-316.8000	-3.2194
300.4942	-316.8000	-3.2197
300.5943	-316.8000	-3.2200
300.6950	-316.8000	-3.2178
300.7973	-316.8000	-3.2178
300.8965	-316.8000	-3.2179
300.9959	-316.8000	-3.2182
301.0978	-316.8000	-3.2144
301.1974	-316.8000	-3.2147
301.2977	-316.8000	-3.2165
301.3983	-316.8000	-3.2175
301.4988	-316.8000	-3.2144
301.5980	-316.8000	-3.2165
301.6983	-316.8000	-3.2131
301.7988	-316.8000	-3.2138
301.8986	-316.8000	-3.2114
301.9983	-316.8000	-3.2104
302.0987	-316.8000	-3.2080
302.1992	-316.8000	-3.2102
302.2982	-316.8000	-3.2091
302.3980	-316.8000	-3.2108
302.4985	-316.8000	-3.2083
302.5982	-316.8000	-3.2112
302.6983	-316.8000	-3.2114
302.7981	-316.8000	-3.2058
302.8979	-316.8000	-3.2083
302.9990	-316.8000	-3.2066
303.0998	-316.8000	-3.2056
303.1990	-316.8000	-3.2051
303.2995	-316.8000	-3.2045
303.3999	-316.8000	-3.2029
303.5000	-316.8000	-3.2050
303.6004	-316.8000	-3.2043
303.7006	-316.8000	-3.2066
303.8007	-316.8000	-3.2023
303.9006	-316.8000	-3.2034
304.0010	-316.8000	-3.2045
304.1016	-316.8000	-3.2045
304.2014	-316.8000	-3.2042
304.3014	-316.8000	-3.2055
304.4024	-316.8000	-3.2025
304.5030	-316.8000	-3.2047
304.6036	-316.8000	-3.2023
304.7030	-316.8000	-3.2028
304.8037	-316.8000	-3.2044
304.9036	-316.8000	-3.2040
305.0039	-316.8000	-3.2023
305.1049	-316.8000	-3.2020
305.2044	-316.8000	-3.2053
305.3045	-316.8000	-3.2025
305.4058	-316.8000	-3.2012
305.5056	-316.8000	-3.2039
305.6053	-316.8000	-3.1996
305.7053	-316.8000	-3.2012
305.8058	-316.8000	-3.1972
305.9051	-316.8000	-3.1992
306.0060	-316.8000	-3.2004
306.1065	-316.8000	-3.2001
306.2069	-316.8000	-3.1975
306.3067	-316.8000	-3.1966
306.4080	-316.8000	-3.1995
306.5096	-316.8000	-3.1989
306.6098	-316.8000	-3.1979
306.7098	-316.8000	-3.1964
306.8091	-316.8000	-3.1961
306.9094	-316.8000	-3.2001
307.0091	-316.8000	-3.1992
307.1108	-316.8000	-3.1971
307.2106	-316.8000	-3.1968
307.3101	-316.8000	-3.1958
307.4117	-316.8000	-3.1945
307.5110	-316.8000	-3.1958
307.6125	-316.8000	-3.1944
307.7123	-316.8000	-3.1938
307.8120	-316.8000	-3.1945
307.9125	-316.8000	-3.1920
308.0130	-316.8000	-3.1920
308.1137	-316.8000	-3.1921
308.2130	-316.8000	-3.1917
308.3134	-316.8000	-3.1893
308.4133	-316.8000	-3.1890
308.5143	-316.8000	-3.1921
308.6140	-316.8000	-3.1924
308.7147	-316.8000	-3.1866
308.8146	-316.8000	-3.1893
308.9154	-316.8000	-3.1902
309.0169	-316.8000	-3.1873
309.1168	-316.8000	-3.1851
309.2170	-316.8000	-3.1874
309.3185	-316.8000	-3.1847
309.4190	-316.8000	-3.1865
309.5199	-316.8000	-3.1851
309.6196	-316.8000	-3.1847
309.7198	-316.8000	-3.1854
309.8199	-316.8000	-3.1834
309.9192	-316.8000	-3.1854
310.0209	-316.8000	-3.1861
310.1215	-316.8000	-3.1812
310.2214	-316.8000	-3.1826
310.3217	-316.8000	-3.1860
310.4214	-316.8000	-3.1854
310.5215	-316.8000	-3.1835
310.6215	-316.8000	-3.1833
310.7222	-316.8000	-3.1829
310.8223	-316.8000	-3.1822
310.9230	-316.8000	-3.1846
311.0240	-316.8000	-3.1834
311.1243	-316.8000	-3.1814
311.2246	-316.8000	-3.1821
311.3247	-316.8000	-3.1828
311.4247	-316.8000	-3.1821
311.5247	-316.8000	-3.1781
311.6243	-316.8000	-3.1811
311.7247	-316.8000	-3.1823
311.8246	-316.8000	-3.1816
311.9246	-316.8000	-3.1831
312.0247	-316.8000	-3.1800
312.1246	-316.8000	-3.1803
312.2247	-316.8000	-3.1826
312.3260	-316.8000	-3.1791
312.4254	-316.8000	-3.1810
312.5252	-316.8000	-3.1778
312.6258	-316.8000	-3.1803
312.7255	-316.8000	-3.1803
312.8259	-316.8000	-3.1780
312.9265	-316.8000	-3.1793
313.0271	-316.8000	-3.1785
313.1279	-316.8000	-3.1802
313.2277	-316.8000	-3.1783
313.3275	-316.8000	-3.1795
313.4272	-316.8000	-3.1812
313.5271	-316.8000	-3.1798
313.6272	-316.8000	-3.1804
313.7276	-316.8000	-3.1760
313.8275	-316.8000	-3.1764
313.9287	-316.8000	-3.1797
314.0298	-316.8000	-3.1773
314.1298	-316.8000	-3.1752
314.2306	-316.8000	-3.1742
314.3303	-316.8000	-3.1754
314.4316	-316.8000	-3.1745
314.5318	-316.8000	-3.1742
314.6323	-316.8000	-3.1727
314.7327	-316.8000	-3.1760
314.8327	-316.8000	-3.1721
314.9340	-316.8000	-3.1735
315.0335	-316.8000	-3.1752
315.1335	-316.8000	-3.1741
315.2336	-316.8000	-3.1743
315.3350	-316.8000	-3.1753
315.4349	-316.8000	-3.1736
315.5343	-316.8000	-3.1741
315.6345	-316.8000	-3.1726
315.7361	-316.8000	-3.1718
315.8370	-316.8000	-3.1726
315.9366	-316.8000	-3.1699
316.0375	-316.8000	-3.1698
316.1383	-316.8000	-3.1683
316.2392	-316.8000	-3.1674
316.3397	-316.8000	-3.1689
316.4396	-316.8000	-3.1650
316.5391	-316.8000	-3.1644
316.6399	-316.8000	-3.1661
316.7399	-316.8000	-3.1677
316.8411	-316.8000	-3.1640
316.9411	-316.8000	-3.1657
317.0411	-316.8000	-3.1657
317.1416	-316.8000	-3.1647
317.2414	-316.8000	-3.1644
317.3419	-316.8000	-3.1673
317.4412	-316.8000	-3.1644
317.5415	-316.8000	-3.1674
317.6416	-316.8000	-3.1670
317.7419	-316.8000	-3.1647
317.8415	-316.8000	-3.1663
317.9427	-316.8000	-3.1661
318.0436	-316.8000	-3.1659
318.1434	-316.8000	-3.1675
318.2438	-316.8000	-3.1653
318.3439	-316.8000	-3.1679
318.4437	-316.8000	-3.1661
318.5440	-316.8000	-3.1631
318.6439	-316.8000	-3.1624
318.7438	-316.8000	-3.1615
318.8440	-316.8000	-3.1626
318.9441	-316.8000	-3.1623
319.0443	-316.8000	-3.1611
319.1444	-316.8000	-3.1588
319.2446	-316.8000	-3.1620
319.3445	-316.8000	-3.1579
319.4452	-316.8000	-3.1609
319.5456	-316.8000	-3.1596
319.6458	-316.8000	-3.1611
319.7455	-316.8000	-3.1626
319.8459	-316.8000	-3.1609
319.9456	-316.8000	-3.1613
320.0460	-316.8000	-3.1608
320.1468	-316.8000	-3.1612
320.2466	-316.8000	-3.1584
320.3465	-316.8000	-3.1587
320.4462	-316.8000	-3.1603
320.5470	-316.8000	-3.1551
320.6467	-316.8000	-3.1576
320.7464	-316.8000	-3.1563
320.8462	-316.8000	-3.1572
320.9469	-316.8000	-3.1589
321.0462	-316.8000	-3.1545
321.1469	-316.8000	-3.1559
321.2467	-316.8000	-3.1570
321.3464	-316.8000	-3.1545
321.4477	-316.8000	-3.1550
321.5475	-316.8000	-3.1562
321.6472	-316.8000	-3.1576
321.7481	-316.8000	-3.1542
321.8475	-316.8000	-3.1518
321.9471	-316.8000	-3.1549
322.0478	-316.8000	-3.1533
322.1477	-316.8000	-3.1522
322.2484	-316.8000	-3.1553
322.3497	-316.8000	-3.1546
322.4493	-316.8000	-3.1535
322.5507	-316.8000	-3.1529
322.6524	-316.8000	-3.1565
322.7524	-316.8000	-3.1548
322.8546	-316.8000	-3.1534
322.9532	-316.8000	-3.1539
323.0536	-316.8000	-3.1479
323.1536	-316.8000	-3.1517
323.2532	-316.8000	-3.1529
323.3556	-316.8000	-3.1521
323.4555	-316.8000	-3.1529
323.5561	-316.8000	-3.1502
323.6555	-316.8000	-3.1522
323.7552	-316.8000	-3.1502
323.8561	-316.8000	-3.1496
323.9560	-316.8000	-3.1498
324.0552	-316.8000	-3.1495
324.1560	-316.8000	-3.1505
324.2556	-316.8000	-3.1499
324.3553	-316.8000	-3.1465
324.4561	-316.8000	-3.1472
324.5561	-316.8000	-3.1463
324.6558	-316.8000	-3.1463
324.7558	-316.8000	-3.1456
324.8559	-316.8000	-3.1474
324.9558	-316.8000	-3.1452
325.0561	-316.8000	-3.1443
325.1553	-316.8000	-3.1462
325.2561	-316.8000	-3.1449
325.3560	-316.8000	-3.1444
325.4553	-316.8000	-3.1464
325.5558	-316.8000	-3.1459
325.6560	-316.8000	-3.1435
325.7554	-316.8000	-3.1446
325.8555	-316.8000	-3.1448
325.9553	-316.8000	-3.1469
326.0556	-316.8000	-3.1467
326.1570	-316.8000	-3.1446
326.2569	-316.8000	-3.1466
326.3563	-316.8000	-3.1451
326.4572	-316.8000	-3.1432
326.5573	-316.8000	-3.1421
326.6581	-316.8000	-3.1444
326.7574	-316.8000	-3.1429
326.8574	-316.8000	-3.1398
326.9574	-316.8000	-3.1394
327.0574	-316.8000	-3.1393
327.1582	-316.8000	-3.1394
327.2593	-316.8000	-3.1399
327.3597	-316.8000	-3.1405
327.4598	-316.8000	-3.1411
327.5597	-316.8000	-3.1392
327.6613	-316.8000	-3.1397
327.7621	-316.8000	-3.1381
327.8622	-316.8000	-3.1406
327.9631	-316.8000	-3.1406
328.0624	-316.8000	-3.1409
328.1625	-316.8000	-3.1394
328.2638	-316.8000	-3.1412
328.3635	-316.8000	-3.1392
328.4632	-316.8000	-3.1385
328.5635	-316.8000	-3.1379
328.6648	-316.8000	-3.1387
328.7647	-316.8000	-3.1394
328.8662	-316.8000	-3.1372
328.9655	-316.8000	-3.1362
329.0658	-316.8000	-3.1356
329.1657	-316.8000	-3.1346
329.2660	-316.8000	-3.1370
329.3653	-316.8000	-3.1379
329.4657	-316.8000	-3.1377
329.5661	-316.8000	-3.1338
329.6665	-316.8000	-3.1325
329.7676	-316.8000	-3.1334
329.8674	-316.8000	-3.1354
329.9677	-316.8000	-3.1322
330.0676	-316.8000	-3.1316
330.1676	-316.8000	-3.1308
330.2679	-316.8000	-3.1340
330.3674	-316.8000	-3.1327
330.4678	-316.8000	-3.1318
330.5686	-316.8000	-3.1334
330.6693	-316.8000	-3.1319
330.7702	-316.8000	-3.1296
330.8710	-316.8000	-3.1298
330.9709	-316.8000	-3.1282
331.0715	-316.8000	-3.1282
331.1718	-316.8000	-3.1286
331.2718	-316.8000	-3.1276
331.3714	-316.8000	-3.1305
331.4719	-316.8000	-3.1287
331.5714	-316.8000	-3.1287
331.6718	-316.8000	-3.1288
331.7718	-316.8000	-3.1276
331.8716	-316.8000	-3.1273
331.9722	-316.8000	-3.1272
332.0716	-316.8000	-3.1294
332.1716	-316.8000	-3.1284
332.2728	-316.8000	-3.1277
332.3726	-316.8000	-3.1258
332.4723	-316.8000	-3.1253
332.5725	-316.8000	-3.1300
332.6725	-316.8000	-3.1224
332.7725	-316.8000	-3.1279
332.8731	-316.8000	-3.1279
332.9726	-316.8000	-3.1276
333.0725	-316.8000	-3.1268
333.1725	-316.8000	-3.1276
333.2726	-316.8000	-3.1253
333.3732	-316.8000	-3.1272
333.4729	-316.8000	-3.1270
333.5742	-316.8000	-3.1270
333.6734	-316.8000	-3.1257
333.7741	-316.8000	-3.1270
333.8738	-316.8000	-3.1280
333.9740	-316.8000	-3.1269
334.0741	-316.8000	-3.1244
334.1745	-316.8000	-3.1252
334.2748	-316.8000	-3.1258
334.3749	-316.8000	-3.1221
334.4744	-316.8000	-3.1231
334.5748	-316.8000	-3.1250
334.6748	-316.8000	-3.1249
334.7743	-316.8000	-3.1223
334.8763	-316.8000	-3.1231
334.9757	-316.8000	-3.1234
335.0760	-316.8000	-3.1213
335.1753	-316.8000	-3.1208
335.2768	-316.8000	-3.1198
335.3765	-316.8000	-3.1199
335.4768	-316.8000	-3.1184
335.5782	-316.8000	-3.1212
335.6789	-316.8000	-3.1187
335.7792	-316.8000	-3.1196
335.8786	-316.8000	-3.1175
335.9793	-316.8000	-3.1175
336.0801	-316.8000	-3.1209
336.1799	-316.8000	-3.1177
336.2812	-316.8000	-3.1188
336.3820	-316.8000	-3.1187
336.4829	-316.8000	-3.1169
336.5829	-316.8000	-3.1202
336.6837	-316.8000	-3.1142
336.7843	-316.8000	-3.1183
336.8848	-316.8000	-3.1208
336.9859	-316.8000	-3.1206
337.0854	-316.8000	-3.1187
337.1866	-316.8000	-3.1189
337.2876	-316.8000	-3.1191
337.3880	-316.8000	-3.1199
337.4880	-316.8000	-3.1209
337.5879	-316.8000	-3.1209
337.6878	-316.8000	-3.1187
337.7888	-316.8000	-3.1183
337.8878	-316.8000	-3.1172
337.9878	-316.8000	-3.1176
338.0886	-316.8000	-3.1137
338.1887	-316.8000	-3.1159
338.2884	-316.8000	-3.1166
338.3886	-316.8000	-3.1117
338.4885	-316.8000	-3.1130
338.5892	-316.8000	-3.1135
338.6896	-316.8000	-3.1135
338.7900	-316.8000	-3.1144
338.8910	-316.8000	-3.1156
338.9909	-316.8000	-3.1146
339.0912	-316.8000	-3.1139
339.1907	-316.8000	-3.1150
339.2913	-316.8000	-3.1123
339.3905	-316.8000	-3.1136
339.4905	-316.8000	-3.1148
339.5904	-316.8000	-3.1115
339.6915	-316.8000	-3.1136
339.7916	-316.8000	-3.1135
339.8915	-316.8000	-3.1125
339.9921	-316.8000	-3.1093
340.0920	-316.8000	-3.1123
340.1915	-316.8000	-3.1101
340.2921	-316.8000	-3.1106
340.3915	-316.8000	-3.1087
340.4918	-316.8000	-3.1104
340.5914	-316.8000	-3.1121
340.6922	-316.8000	-3.1105
340.7923	-316.8000	-3.1092
340.8920	-316.8000	-3.1098
340.9917	-316.8000	-3.1113
341.0920	-316.8000	-3.1071
341.1923	-316.8000	-3.1083
341.2916	-316.8000	-3.1073
341.3919	-316.8000	-3.1067
341.4925	-316.8000	-3.1076
341.5927	-316.8000	-3.1082
341.6939	-316.8000	-3.1067
341.7942	-316.8000	-3.1084
341.8940	-316.8000	-3.1091
341.9951	-316.8000	-3.1095
342.0951	-316.8000	-3.1063
342.1949	-316.8000	-3.1089
342.2944	-316.8000	-3.1065
342.3959	-316.8000	-3.1069
342.4958	-316.8000	-3.1050
342.5966	-316.8000	-3.1061
342.6965	-316.8000	-3.1050
342.7972	-316.8000	-3.1036
342.8974	-316.8000	-3.1057
342.9979	-316.8000	-3.1038
343.0984	-316.8000	-3.1057
343.1992	-316.8000	-3.1067
343.2988	-316.8000	-3.1047
343.3989	-316.8000	-3.1017
343.5003	-316.8000	-3.1038
343.6001	-316.8000	-3.1067
343.7001	-316.8000	-3.1019
343.8009	-316.8000	-3.1049
343.9021	-316.8000	-3.1014
344.0022	-316.8000	-3.1016
344.1020	-316.8000	-3.0996
344.2015	-316.8000	-3.1014
344.3022	-316.8000	-3.0996
344.4019	-316.8000	-3.1029
344.5018	-316.8000	-3.1023
344.6020	-316.8000	-3.0990
344.7024	-316.8000	-3.0987
344.8027	-316.8000	-3.1015
344.9036	-316.8000	-3.1026
345.0048	-316.8000	-3.0996
345.1051	-316.8000	-3.1020
345.2047	-316.8000	-3.0992
345.3050	-316.8000	-3.1026
345.4051	-316.8000	-3.1022
345.5045	-316.8000	-3.0989
345.6046	-316.8000	-3.1014
345.7050	-316.8000	-3.0990
345.8050	-316.8000	-3.0983
345.9047	-316.8000	-3.1034
346.0051	-316.8000	-3.0990
346.1052	-316.8000	-3.0988
346.2051	-316.8000	-3.1004
346.3051	-316.8000	-3.1017
346.4056	-316.8000	-3.0986
346.5064	-316.8000	-3.1007
346.6062	-316.8000	-3.0983
346.7059	-316.8000	-3.0988
346.8071	-316.8000	-3.0962
346.9075	-316.8000	-3.0999
347.0082	-316.8000	-3.0968
347.1078	-316.8000	-3.0954
347.2080	-316.8000	-3.0981
347.3079	-316.8000	-3.0977
347.4077	-316.8000	-3.0975
347.5083	-316.8000	-3.0988
347.6085	-316.8000	-3.0973
347.7087	-316.8000	-3.0968
347.8085	-316.8000	-3.0978
347.9093	-316.8000	-3.0965
348.0095	-316.8000	-3.0976
348.1104	-316.8000	-3.0999
348.2111	-316.8000	-3.0975
348.3111	-316.8000	-3.0972
348.4115	-316.8000	-3.0994
348.5126	-316.8000	-3.1008
348.6128	-316.8000	-3.0979
348.7128	-316.8000	-3.0975
348.8137	-316.8000	-3.0983
348.9139	-316.8000	-3.0965
349.0153	-316.8000	-3.0949
349.1148	-316.8000	-3.0941
349.2157	-316.8000	-3.0955
349.3164	-316.8000	-3.0946
349.4160	-316.8000	-3.0936
349.5155	-316.8000	-3.0924
349.6159	-316.8000	-3.0900
349.7158	-316.8000	-3.0905
349.8160	-316.8000	-3.0940
349.9170	-316.8000	-3.0927
350.0167	-316.8000	-3.0898
350.1172	-316.8000	-3.0898
350.2181	-316.8000	-3.0909
350.3181	-316.8000	-3.0916
350.4183	-316.8000	-3.0900
350.5178	-316.8000	-3.0913
350.6194	-316.8000	-3.0923
350.7192	-316.8000	-3.0874
350.8190	-316.8000	-3.0887
350.9201	-316.8000	-3.0873
351.0202	-316.8000	-3.0891
351.1205	-316.8000	-3.0878
351.2206	-316.8000	-3.0887
351.3219	-316.8000	-3.0880
351.4223	-316.8000	-3.0875
351.5222	-316.8000	-3.0879
351.6230	-316.8000	-3.0897
351.7249	-316.8000	-3.0861
351.8244	-316.8000	-3.0882
351.9240	-316.8000	-3.0857
352.0240	-316.8000	-3.0871
352.1246	-316.8000	-3.0885
352.2252	-316.8000	-3.0870
352.3248	-316.8000	-3.0853
352.4249	-316.8000	-3.0865
352.5249	-316.8000	-3.0853
352.6253	-316.8000	-3.0870
352.7248	-316.8000	-3.0883
352.8249	-316.8000	-3.0849
352.9252	-316.8000	-3.0873
353.0252	-316.8000	-3.0868
353.1249	-316.8000	-3.0878
353.2248	-316.8000	-3.0858
353.3253	-316.8000	-3.0886
353.4249	-316.8000	-3.0869
353.5247	-316.8000	-3.0869
353.6252	-316.8000	-3.0855
353.7252	-316.8000	-3.0851
353.8252	-316.8000	-3.0832
353.9247	-316.8000	-3.0824
354.0252	-316.8000	-3.0864
354.1250	-316.8000	-3.0846
354.2246	-316.8000	-3.0824
354.3254	-316.8000	-3.0827
354.4258	-316.8000	-3.0845
354.5265	-316.8000	-3.0835
354.6271	-316.8000	-3.0858
354.7271	-316.8000	-3.0822
354.8269	-316.8000	-3.0817
354.9266	-316.8000	-3.0834
355.0266	-316.8000	-3.0839
355.1281	-316.8000	-3.0822
355.2277	-316.8000	-3.0834
355.3287	-316.8000	-3.0832
355.4293	-316.8000	-3.0832
355.5289	-316.8000	-3.0824
355.6297	-316.8000	-3.0826
355.7303	-316.8000	-3.0807
355.8305	-316.8000	-3.0788
355.9305	-316.8000	-3.0780
356.0298	-316.8000	-3.0803
356.1304	-316.8000	-3.0799
356.2303	-316.8000	-3.0778
356.3299	-316.8000	-3.0793
356.4302	-316.8000	-3.0790
356.5304	-316.8000	-3.0774
356.6304	-316.8000	-3.0783
356.7298	-316.8000	-3.0783
356.8302	-316.8000	-3.0785
356.9309	-316.8000	-3.0780
357.0320	-316.8000	-3.0786
357.1319	-316.8000	-3.0778
357.2326	-316.8000	-3.0776
357.3322	-316.8000	-3.0757
357.4321	-316.8000	-3.0761
357.5330	-316.8000	-3.0778
357.6335	-316.8000	-3.0754
357.7326	-316.8000	-3.0757
357.8331	-316.8000	-3.0774
357.9330	-316.8000	-3.0790
358.0333	-316.8000	-3.0760
358.1345	-316.8000	-3.0749
358.2353	-316.8000	-3.0748
358.3349	-316.8000	-3.0740
358.4351	-316.8000	-3.0737
358.5357	-316.8000	-3.0762
358.6361	-316.8000	-3.0770
358.7365	-316.8000	-3.0734
358.8360	-316.8000	-3.0750
358.9367	-316.8000	-3.0774
359.0368	-316.8000	-3.0737
359.1376	-316.8000	-3.0755
359.2373	-316.8000	-3.0760
359.3374	-316.8000	-3.0749
359.4385	-316.8000	-3.0738
359.5388	-316.8000	-3.0743
359.6391	-316.8000	-3.0743
359.7394	-316.8000	-3.0740
359.8388	-316.8000	-3.0744
359.9396	-316.8000	-3.0716
360.0399	-316.8000	-3.0717
360.1403	-316.8000	-3.0736
360.2399	-316.8000	-3.0711
360.3396	-316.8000	-3.0723
360.4416	-316.8000	-3.0728
360.5413	-316.8000	-3.0709
360.6414	-316.8000	-3.0709
360.7412	-316.8000	-3.0704
360.8412	-316.8000	-3.0707
360.9415	-316.8000	-3.0697
361.0407	-316.8000	-3.0706
361.1417	-316.8000	-3.0712
361.2427	-316.8000	-3.0705
361.3428	-316.8000	-3.0690
361.4429	-316.8000	-3.0709
361.5435	-316.8000	-3.0705
361.6437	-316.8000	-3.0711
361.7446	-316.8000	-3.0664
361.8443	-316.8000	-3.0682
361.9442	-316.8000	-3.0713
362.0450	-316.8000	-3.0701
362.1452	-316.8000	-3.0694
362.2451	-316.8000	-3.0704
362.3452	-316.8000	-3.0695
362.4448	-316.8000	-3.0703
362.5454	-316.8000	-3.0689
362.6452	-316.8000	-3.0708
362.7451	-316.8000	-3.0683
362.8457	-316.8000	-3.0706
362.9459	-316.8000	-3.0685
363.0467	-316.8000	-3.0682
363.1479	-316.8000	-3.0649
363.2481	-316.8000	-3.0662
363.3496	-316.8000	-3.0679
363.4497	-316.8000	-3.0680
363.5506	-316.8000	-3.0664
363.6505	-316.8000	-3.0656
363.7500	-316.8000	-3.0660
363.8517	-316.8000	-3.0643
363.9519	-316.8000	-3.0636
364.0525	-316.8000	-3.0632
364.1526	-316.8000	-3.0631
364.2531	-316.8000	-3.0660
364.3529	-316.8000	-3.0633
364.4528	-316.8000	-3.0648
364.5531	-316.8000	-3.0659
364.6535	-316.8000	-3.0676
364.7530	-316.8000	-3.0656
364.8529	-316.8000	-3.0647
364.9541	-316.8000	-3.0612
365.0551	-316.8000	-3.0628
365.1552	-316.8000	-3.0645
365.2548	-316.8000	-3.0637
365.3551	-316.8000	-3.0601
365.4566	-316.8000	-3.0606
365.5563	-316.8000	-3.0627
365.6560	-316.8000	-3.0625
365.7563	-316.8000	-3.0617
365.8560	-316.8000	-3.0599
365.9577	-316.8000	-3.0635
366.0587	-316.8000	-3.0611
366.1598	-316.8000	-3.0599
366.2600	-316.8000	-3.0634
366.3602	-316.8000	-3.0586
366.4611	-316.8000	-3.0562
366.5623	-316.8000	-3.0617
366.6632	-316.8000	-3.0585
366.7633	-316.8000	-3.0582
366.8628	-316.8000	-3.0598
366.9630	-316.8000	-3.0597
367.0632	-316.8000	-3.0605
367.1631	-316.8000	-3.0598
367.2644	-316.8000	-3.0598
367.3643	-316.8000	-3.0598
367.4656	-316.8000	-3.0601
367.5653	-316.8000	-3.0571
367.6659	-316.8000	-3.0553
367.7666	-316.8000	-3.0577
367.8662	-316.8000	-3.0567
367.9665	-316.8000	-3.0575
368.0672	-316.8000	-3.0569
368.1680	-316.8000	-3.0558
368.2682	-316.8000	-3.0547
368.3686	-316.8000	-3.0559
368.4681	-316.8000	-3.0557
368.5680	-316.8000	-3.0563
368.6682	-316.8000	-3.0555
368.7685	-316.8000	-3.0546
368.8683	-316.8000	-3.0561
368.9678	-316.8000	-3.0561
369.0679	-316.8000	-3.0566
369.1686	-316.8000	-3.0549
369.2682	-316.8000	-3.0533
369.3689	-316.8000	-3.0550
369.4693	-316.8000	-3.0589
369.5689	-316.8000	-3.0552
369.6694	-316.8000	-3.0542
369.7695	-316.8000	-3.0548
369.8688	-316.8000	-3.0556
369.9689	-316.8000	-3.0539
370.0690	-316.8000	-3.0562
370.1697	-316.8000	-3.0564
370.2694	-316.8000	-3.0550
370.3700	-316.8000	-3.0550
370.4701	-316.8000	-3.0574
370.5698	-316.8000	-3.0534
370.6698	-316.8000	-3.0554
370.7701	-316.8000	-3.0485
370.8704	-316.8000	-3.0531
370.9705	-316.8000	-3.0554
371.0701	-316.8000	-3.0547
371.1711	-316.8000	-3.0527
371.2719	-316.8000	-3.0557
371.3724	-316.8000	-3.0540
371.4722	-316.8000	-3.0543
371.5725	-316.8000	-3.0545
371.6728	-316.8000	-3.0546
371.7728	-316.8000	-3.0520
371.8731	-316.8000	-3.0524
371.9730	-316.8000	-3.0522
372.0732	-316.8000	-3.0518
372.1731	-316.8000	-3.0540
372.2731	-316.8000	-3.0518
372.3729	-316.8000	-3.0547
372.4739	-316.8000	-3.0496
372.5738	-316.8000	-3.0529
372.6746	-316.8000	-3.0530
372.7757	-316.8000	-3.0532
372.8758	-316.8000	-3.0523
372.9754	-316.8000	-3.0561
373.0756	-316.8000	-3.0529
373.1767	-316.8000	-3.0524
373.2762	-316.8000	-3.0537
373.3768	-316.8000	-3.0523
373.4766	-316.8000	-3.0477
373.5758	-316.8000	-3.0522
373.6762	-316.8000	-3.0538
373.7760	-316.8000	-3.0514
373.8763	-316.8000	-3.0522
373.9761	-316.8000	-3.0504
374.0768	-316.8000	-3.0534
374.1769	-316.8000	-3.0513
374.2772	-316.8000	-3.0504
374.3768	-316.8000	-3.0485
374.4780	-316.8000	-3.0521
374.5781	-316.8000	-3.0502
374.6793	-316.8000	-3.0499
374.7817	-316.8000	-3.0517
374.8812	-316.8000	-3.0521
374.9823	-316.8000	-3.0529
375.0823	-316.8000	-3.0517
375.1819	-316.8000	-3.0522
375.2826	-316.8000	-3.0513
375.3833	-316.8000	-3.0507
375.4831	-316.8000	-3.0482
375.5831	-316.8000	-3.0472
375.6837	-316.8000	-3.0473
375.7843	-316.8000	-3.0465
375.8859	-316.8000	-3.0445
375.9862	-316.8000	-3.0452
376.0878	-316.8000	-3.0426
376.1887	-316.8000	-3.0451
376.2882	-316.8000	-3.0454
376.3885	-316.8000	-3.0446
376.4880	-316.8000	-3.0481
376.5890	-316.8000	-3.0460
376.6889	-316.8000	-3.0454
376.7902	-316.8000	-3.0459
376.8905	-316.8000	-3.0445
376.9904	-316.8000	-3.0444
377.0900	-316.8000	-3.0451
377.1904	-316.8000	-3.0428
377.2900	-316.8000	-3.0463
377.3898	-316.8000	-3.0444
377.4905	-316.8000	-3.0441
377.5906	-316.8000	-3.0441
377.6908	-316.8000	-3.0428
377.7905	-316.8000	-3.0427
377.8912	-316.8000	-3.0457
377.9910	-316.8000	-3.0426
378.0915	-316.8000	-3.0420
378.1910	-316.8000	-3.0420
378.2914	-316.8000	-3.0445
378.3909	-316.8000	-3.0420
378.4916	-316.8000	-3.0445
378.5920	-316.8000	-3.0410
378.6926	-316.8000	-3.0437
378.7928	-316.8000	-3.0438
378.8928	-316.8000	-3.0441
378.9926	-316.8000	-3.0429
379.0926	-316.8000	-3.0395
379.1928	-316.8000	-3.0410
379.2923	-316.8000	-3.0428
379.3935	-316.8000	-3.0418
379.4940	-316.8000	-3.0409
379.5944	-316.8000	-3.0423
379.6951	-316.8000	-3.0397
379.7953	-316.8000	-3.0383
379.8954	-316.8000	-3.0402
379.9952	-316.8000	-3.0414
380.0953	-316.8000	-3.0393
380.1954	-316.8000	-3.0399
380.2969	-316.8000	-3.0400
380.3966	-316.8000	-3.0406
380.4962	-316.8000	-3.0407
380.5973	-316.8000	-3.0416
380.6977	-316.8000	-3.0421
380.7971	-316.8000	-3.0402
380.8973	-316.8000	-3.0423
380.9973	-316.8000	-3.0440
381.0988	-316.8000	-3.0395
381.1980	-316.8000	-3.0389
381.2990	-316.8000	-3.0364
381.4002	-316.8000	-3.0371
381.5000	-316.8000	-3.0365
381.6008	-316.8000	-3.0364
381.6999	-316.8000	-3.0390
381.8023	-316.8000	-3.0367
381.9019	-316.8000	-3.0365
382.0026	-316.8000	-3.0377
382.1027	-316.8000	-3.0373
382.2021	-316.8000	-3.0370
382.3038	-316.8000	-3.0367
382.4035	-316.8000	-3.0375
382.5033	-316.8000	-3.0372
382.6030	-316.8000	-3.0346
382.7038	-316.8000	-3.0348
382.8035	-316.8000	-3.0359
382.9032	-316.8000	-3.0352
383.0029	-316.8000	-3.0374
383.1037	-316.8000	-3.0366
383.2034	-316.8000	-3.0361
383.3038	-316.8000	-3.0355
383.4032	-316.8000	-3.0355
383.5032	-316.8000	-3.0375
383.6032	-316.8000	-3.0375
383.7033	-316.8000	-3.0371
383.8032	-316.8000	-3.0356
383.9032	-316.8000	-3.0377
384.0032	-316.8000	-3.0378
384.1032	-316.8000	-3.0354
384.2033	-316.8000	-3.0342
384.3035	-316.8000	-3.0362
384.4033	-316.8000	-3.0358
384.5032	-316.8000	-3.0350
384.6044	-316.8000	-3.0346
384.7050	-316.8000	-3.0358
384.8054	-316.8000	-3.0343
384.9056	-316.8000	-3.0365
385.0053	-316.8000	-3.0329
385.1060	-316.8000	-3.0295
385.2071	-316.8000	-3.0318
385.3077	-316.8000	-3.0318
385.4081	-316.8000	-3.0313
385.5087	-316.8000	-3.0305
385.6089	-316.8000	-3.0320
385.7089	-316.8000	-3.0310
385.8086	-316.8000	-3.0337
385.9087	-316.8000	-3.0308
386.0087	-316.8000	-3.0339
386.1101	-316.8000	-3.0322
386.2104	-316.8000	-3.0330
386.3105	-316.8000	-3.0308
386.4104	-316.8000	-3.0293
386.5109	-316.8000	-3.0306
386.6107	-316.8000	-3.0318
386.7118	-316.8000	-3.0300
386.8115	-316.8000	-3.0312
386.9113	-316.8000	-3.0323
387.0114	-316.8000	-3.0310
387.1114	-316.8000	-3.0315
387.2113	-316.8000	-3.0297
387.3114	-316.8000	-3.0305
387.4124	-316.8000	-3.0307
387.5126	-316.8000	-3.0299
387.6121	-316.8000	-3.0278
387.7129	-316.8000	-3.0316
387.8124	-316.8000	-3.0269
387.9125	-316.8000	-3.0289
388.0128	-316.8000	-3.0273
388.1125	-316.8000	-3.0296
388.2129	-316.8000	-3.0296
388.3135	-316.8000	-3.0296
388.4131	-316.8000	-3.0319
388.5139	-316.8000	-3.0293
388.6132	-316.8000	-3.0320
388.7145	-316.8000	-3.0315
388.8150	-316.8000	-3.0315
388.9151	-316.8000	-3.0297
389.0156	-316.8000	-3.0319
389.1170	-316.8000	-3.0276
389.2166	-316.8000	-3.0288
389.3174	-316.8000	-3.0261
389.4171	-316.8000	-3.0301
389.5180	-316.8000	-3.0300
389.6180	-316.8000	-3.0299
389.7184	-316.8000	-3.0316
389.8209	-316.8000	-3.0291
389.9196	-316.8000	-3.0303
390.0199	-316.8000	-3.0298
390.1205	-316.8000	-3.0303
390.2201	-316.8000	-3.0309
390.3209	-316.8000	-3.0319
390.4206	-316.8000	-3.0282
390.5210	-316.8000	-3.0302
390.6202	-316.8000	-3.0295
390.7207	-316.8000	-3.0297
390.8209	-316.8000	-3.0287
390.9218	-316.8000	-3.0292
391.0218	-316.8000	-3.0297
391.1220	-316.8000	-3.0257
391.2221	-316.8000	-3.0246
391.3230	-316.8000	-3.0291
391.4228	-316.8000	-3.0271
391.5229	-316.8000	-3.0254
391.6226	-316.8000	-3.0277
391.7226	-316.8000	-3.0260
391.8220	-316.8000	-3.0250
391.9236	-316.8000	-3.0235
392.0249	-316.8000	-3.0234
392.1246	-316.8000	-3.0265
392.2258	-316.8000	-3.0218
392.3262	-316.8000	-3.0224
392.4266	-316.8000	-3.0242
392.5279	-316.8000	-3.0255
392.6271	-316.8000	-3.0247
392.7278	-316.8000	-3.0232
392.8278	-316.8000	-3.0206
392.9277	-316.8000	-3.0213
393.0281	-316.8000	-3.0244
393.1282	-316.8000	-3.0221
393.2290	-316.8000	-3.0191
393.3286	-316.8000	-3.0239
393.4289	-316.8000	-3.0194
393.5292	-316.8000	-3.0232
393.6305	-316.8000	-3.0228
393.7309	-316.8000	-3.0262
393.8303	-316.8000	-3.0204
393.9302	-316.8000	-3.0200
394.0310	-316.8000	-3.0229
394.1319	-316.8000	-3.0235
394.2315	-316.8000	-3.0204
394.3313	-316.8000	-3.0200
394.4327	-316.8000	-3.0222
394.5335	-316.8000	-3.0218
394.6335	-316.8000	-3.0224
394.7334	-316.8000	-3.0179
394.8334	-316.8000	-3.0204
394.9332	-316.8000	-3.0192
395.0347	-316.8000	-3.0176
395.1344	-316.8000	-3.0173
395.2344	-316.8000	-3.0203
395.3360	-316.8000	-3.0212
395.4356	-316.8000	-3.0173
395.5355	-316.8000	-3.0199
395.6355	-316.8000	-3.0195
395.7371	-316.8000	-3.0203
395.8365	-316.8000	-3.0197
395.9365	-316.8000	-3.0182
396.0361	-316.8000	-3.0163
396.1361	-316.8000	-3.0182
396.2365	-316.8000	-3.0179
396.3371	-316.8000	-3.0183
396.4375	-316.8000	-3.0191
396.5390	-316.8000	-3.0175
396.6382	-316.8000	-3.0172
396.7384	-316.8000	-3.0168
396.8392	-316.8000	-3.0186
396.9400	-316.8000	-3.0191
397.0398	-316.8000	-3.0174
397.1399	-316.8000	-3.0163
397.2395	-316.8000	-3.0176
397.3396	-316.8000	-3.0171
397.4393	-316.8000	-3.0154
397.5401	-316.8000	-3.0161
397.6404	-316.8000	-3.0149
397.7401	-316.8000	-3.0177
397.8410	-316.8000	-3.0170
397.9406	-316.8000	-3.0165
398.0405	-316.8000	-3.0151
398.1407	-316.8000	-3.0155
398.2402	-316.8000	-3.0143
398.3409	-316.8000	-3.0144
398.4405	-316.8000	-3.0143
398.5407	-316.8000	-3.0157
398.6409	-316.8000	-3.0138
398.7406	-316.8000	-3.0170
398.8402	-316.8000	-3.0160
398.9403	-316.8000	-3.0133
399.0403	-316.8000	-3.0152
399.1409	-316.8000	-3.0164
399.2407	-316.8000	-3.0161
399.3412	-316.8000	-3.0130
399.4419	-316.8000	-3.0133
399.5412	-316.8000	-3.0166
399.6416	-316.8000	-3.0172
399.7417	-316.8000	-3.0172
399.8416	-316.8000	-3.0163
399.9422	-316.8000	-3.0181
400.0429	-316.8000	-3.0172
400.1441	-316.8000	-3.0155
400.2434	-316.8000	-3.0121
400.3434	-316.8000	-3.0130
400.4434	-316.8000	-3.0129
400.5433	-316.8000	-3.0127
400.6434	-316.8000	-3.0132
400.7435	-316.8000	-3.0118
400.8433	-316.8000	-3.0136
400.9433	-316.8000	-3.0137
401.0434	-316.8000	-3.0127
401.1436	-316.8000	-3.0128
401.2434	-316.8000	-3.0137
401.3435	-316.8000	-3.0114
401.4434	-316.8000	-3.0120
401.5446	-316.8000	-3.0118
401.6446	-316.8000	-3.0095
401.7442	-316.8000	-3.0101
401.8449	-316.8000	-3.0111
401.9456	-316.8000	-3.0109
402.0465	-316.8000	-3.0124
402.1462	-316.8000	-3.0109
402.2471	-316.8000	-3.0116
402.3465	-316.8000	-3.0117
402.4463	-316.8000	-3.0112
402.5474	-316.8000	-3.0093
402.6481	-316.8000	-3.0100
402.7478	-316.8000	-3.0111
402.8480	-316.8000	-3.0101
402.9475	-316.8000	-3.0087
403.0474	-316.8000	-3.0104
403.1493	-316.8000	-3.0115
403.2488	-316.8000	-3.0059
403.3487	-316.8000	-3.0073
403.4500	-316.8000	-3.0087
403.5508	-316.8000	-3.0098
403.6510	-316.8000	-3.0087
403.7507	-316.8000	-3.0084
403.8505	-316.8000	-3.0106
403.9508	-316.8000	-3.0083
404.0503	-316.8000	-3.0095
404.1506	-316.8000	-3.0089
404.2503	-316.8000	-3.0109
404.3513	-316.8000	-3.0100
404.4512	-316.8000	-3.0074
404.5512	-316.8000	-3.0067
404.6517	-316.8000	-3.0092
404.7513	-316.8000	-3.0118
404.8520	-316.8000	-3.0066
404.9518	-316.8000	-3.0069
405.0522	-316.8000	-3.0055
405.1527	-316.8000	-3.0067
405.2529	-316.8000	-3.0064
405.3533	-316.8000	-3.0072
405.4542	-316.8000	-3.0102
405.5535	-316.8000	-3.0097
405.6547	-316.8000	-3.0079
405.7556	-316.8000	-3.0065
405.8556	-316.8000	-3.0068
405.9559	-316.8000	-3.0042
406.0557	-316.8000	-3.0058
406.1555	-316.8000	-3.0054
406.2559	-316.8000	-3.0066
406.3566	-316.8000	-3.0079
406.4571	-316.8000	-3.0062
406.5580	-316.8000	-3.0062
406.6575	-316.8000	-3.0051
406.7581	-316.8000	-3.0059
406.8580	-316.8000	-3.0046
406.9576	-316.8000	-3.0041
407.0576	-316.8000	-3.0080
407.1579	-316.8000	-3.0054
407.2578	-316.8000	-3.0054
407.3578	-316.8000	-3.0083
407.4576	-316.8000	-3.0109
407.5592	-316.8000	-3.0069
407.6600	-316.8000	-3.0080
407.7607	-316.8000	-3.0057
407.8607	-316.8000	-3.0079
407.9609	-316.8000	-3.0051
408.0618	-316.8000	-3.0056
408.1615	-316.8000	-3.0042
408.2618	-316.8000	-3.0040
408.3614	-316.8000	-3.0031
408.4616	-316.8000	-3.0011
408.5631	-316.8000	-3.0037
408.6627	-316.8000	-3.0036
408.7636	-316.8000	-3.0016
408.8643	-316.8000	-3.0036
408.9657	-316.8000	-3.0063
409.0667	-316.8000	-3.0024
409.1668	-316.8000	-3.0004
409.2671	-316.8000	-3.0015
409.3665	-316.8000	-3.0026
409.4666	-316.8000	-3.0046
409.5677	-316.8000	-2.9998
409.6680	-316.8000	-3.0002
409.7686	-316.8000	-3.0020
409.8682	-316.8000	-3.0021
409.9692	-316.8000	-3.0009
410.0689	-316.8000	-3.0016
410.1694	-316.8000	-3.0010
410.2702	-316.8000	-3.0010
410.3694	-316.8000	-3.0018
410.4697	-316.8000	-3.0007
410.5706	-316.8000	-3.0011
410.6712	-316.8000	-2.9999
410.7711	-316.8000	-3.0008
410.8707	-316.8000	-3.0009
410.9706	-316.8000	-3.0032
411.0712	-316.8000	-3.0013
411.1703	-316.8000	-3.0004
411.2707	-316.8000	-3.0000
411.3705	-316.8000	-3.0019
411.4712	-316.8000	-3.0008
411.5709	-316.8000	-3.0008
411.6707	-316.8000	-2.9997
411.7710	-316.8000	-3.0014
411.8709	-316.8000	-2.9998
411.9713	-316.8000	-3.0005
412.0721	-316.8000	-3.0016
412.1723	-316.8000	-3.0009
412.2731	-316.8000	-2.9993
412.3731	-316.8000	-2.9995
412.4739	-316.8000	-2.9987
412.5736	-316.8000	-3.0000
412.6736	-316.8000	-3.0007
412.7735	-316.8000	-2.9983
412.8735	-316.8000	-2.9979
412.9736	-316.8000	-2.9959
413.0736	-316.8000	-2.9975
413.1746	-316.8000	-2.9957
413.2744	-316.8000	-2.9973
413.3746	-316.8000	-2.9945
413.4757	-316.8000	-2.9917
413.5759	-316.8000	-2.9940
413.6757	-316.8000	-2.9964
413.7757	-316.8000	-2.9972
413.8755	-316.8000	-2.9921
413.9760	-316.8000	-2.9933
414.0757	-316.8000	-2.9960
414.1764	-316.8000	-2.9965
414.2765	-316.8000	-2.9949
414.3773	-316.8000	-2.9942
414.4780	-316.8000	-2.9937
414.5774	-316.8000	-2.9968
