4/12/2023 1:44:46 pm
Time(s)	Displacement(mm)	Force(N)
0.0000	-281.7970	1.0299
0.1611	-281.7970	1.0286
0.2608	-281.7970	1.0322
0.3615	-281.7970	1.0303
0.4607	-281.7970	1.0344
0.5621	-281.7970	1.0290
0.6619	-281.7970	1.0313
0.7636	-281.7970	1.0316
0.8636	-281.7970	1.0264
0.9636	-281.7970	1.0273
1.0629	-281.7970	1.0292
1.1638	-281.7970	1.0307
1.2642	-281.7970	1.0368
1.3638	-281.7970	1.0320
1.4644	-281.7970	1.0334
1.5642	-281.7970	1.0308
1.6637	-281.7970	1.0301
1.7647	-281.7970	1.0345
1.8642	-281.7970	1.0328
1.9639	-281.7970	1.0297
2.0638	-281.7970	1.0328
2.1645	-281.7970	1.0335
2.2644	-281.7970	1.0283
2.3639	-281.7970	1.0339
2.4637	-281.7970	1.0306
2.5639	-281.7970	1.0322
2.6642	-281.7970	1.0322
2.7641	-281.7970	1.0278
2.8638	-281.7970	1.0325
2.9645	-281.7970	1.0301
3.0639	-281.7970	1.0276
3.1638	-281.7970	1.0299
3.2643	-281.7970	1.0306
3.3639	-281.7970	1.0280
3.4648	-281.7970	1.0332
3.5649	-281.7970	1.0299
3.6658	-281.7970	1.0275
3.7667	-281.7970	1.0310
3.8673	-281.7970	1.0333
3.9672	-281.7970	1.0294
4.0676	-281.7970	1.0315
4.1679	-281.7970	1.0281
4.2681	-281.7970	1.0322
4.3686	-281.7970	1.0288
4.4692	-281.7970	1.0267
4.5700	-281.7970	1.0284
4.6715	-281.7970	1.0313
4.7716	-281.7970	1.0298
4.8710	-281.7970	1.0250
4.9720	-281.7970	1.0316
5.0724	-281.7970	1.0328
5.1724	-281.7970	1.0319
5.2730	-281.7970	1.0371
5.3733	-281.7970	1.0304
5.4739	-281.7970	1.0327
5.5742	-281.7970	1.0344
5.6740	-281.7970	1.0326
5.7740	-281.7970	1.0331
5.8739	-281.7970	1.0303
5.9746	-281.7970	1.0297
6.0744	-281.7970	1.0297
6.1749	-281.7970	1.0336
6.2767	-281.7970	1.0315
6.3775	-281.7970	1.0311
6.4770	-281.7970	1.0341
6.5784	-281.7970	1.0325
6.6785	-281.7970	1.0351
6.7786	-281.6300	1.0611
6.8986	-281.2490	1.0222
6.9986	-281.0000	1.0326
7.0980	-281.0000	1.0338
7.1978	-281.0000	1.0421
7.2987	-281.0000	1.0411
7.3987	-281.0000	1.0360
7.4985	-281.0000	1.0333
7.5989	-281.0000	1.0386
7.6988	-281.0000	1.0388
7.7990	-281.0000	1.0416
7.8997	-281.0000	1.0380
7.9990	-281.0000	1.0355
8.0991	-281.0000	1.0337
8.1990	-281.0000	1.0356
8.2991	-281.0000	1.0395
8.3991	-281.0000	1.0367
8.4996	-281.0000	1.0336
8.5990	-281.0000	1.0339
8.6991	-281.0000	1.0340
8.8000	-281.0000	1.0362
8.9000	-281.0000	1.0354
8.9998	-281.0000	1.0333
9.1002	-281.0000	1.0370
9.2000	-281.0000	1.0308
9.3005	-281.0000	1.0344
9.3998	-281.0000	1.0292
9.5001	-281.0000	1.0368
9.5998	-281.0000	1.0324
9.7006	-281.0000	1.0325
9.8014	-281.0000	1.0364
9.9015	-281.0000	1.0306
10.0013	-281.0000	1.0313
10.1011	-281.0000	1.0359
10.2029	-281.0000	1.0327
10.3041	-281.0000	1.0354
10.4046	-281.0000	1.0306
10.5041	-281.0000	1.0366
10.6038	-281.0000	1.0346
10.7045	-281.0000	1.0307
10.8045	-281.0000	1.0339
10.9039	-281.0000	1.0329
11.0047	-281.0000	1.0327
11.1043	-281.0000	1.0327
11.2041	-281.0000	1.0334
11.3042	-281.0000	1.0291
11.4045	-281.0000	1.0364
11.5045	-281.0000	1.0326
11.6044	-281.0000	1.0354
11.7053	-281.0000	1.0370
11.8051	-281.0000	1.0335
11.9048	-281.0000	1.0337
12.0055	-281.0000	1.0362
12.1050	-281.0000	1.0315
12.2050	-281.0000	1.0298
12.3056	-281.0000	1.0312
12.4054	-281.0000	1.0301
12.5052	-281.0000	1.0331
12.6050	-281.0000	1.0350
12.7055	-281.0000	1.0331
12.8056	-281.0000	1.0334
12.9050	-281.0000	1.0333
13.0057	-281.0000	1.0332
13.1051	-281.0000	1.0315
13.2050	-281.0000	1.0322
13.3058	-281.0000	1.0360
13.4059	-281.0000	1.0344
13.5060	-281.0000	1.0362
13.6068	-281.0000	1.0325
13.7063	-281.0000	1.0349
13.8071	-281.0000	1.0334
13.9073	-281.0000	1.0351
14.0071	-281.0000	1.0301
14.1071	-281.0000	1.0343
14.2088	-281.0000	1.0308
14.3086	-281.0000	1.0361
14.4085	-281.0000	1.0307
14.5082	-281.0000	1.0338
14.6086	-281.0000	1.0390
14.7089	-281.0000	1.0344
14.8091	-281.0000	1.0380
14.9089	-281.0000	1.0376
15.0099	-281.0000	1.0382
15.1102	-281.0000	1.0328
15.2102	-281.0000	1.0327
15.3101	-281.0000	1.0362
15.4101	-281.0000	1.0359
15.5100	-281.0000	1.0317
15.6101	-281.0000	1.0318
15.7103	-281.0000	1.0379
15.8108	-281.0000	1.0333
15.9100	-281.0000	1.0354
16.0102	-281.0000	1.0324
16.1103	-281.0000	1.0378
16.2106	-281.0000	1.0326
16.3110	-281.0000	1.0401
16.4112	-281.0000	1.0335
16.5127	-281.0000	1.0332
16.6124	-281.0000	1.0355
16.7124	-281.0000	1.0368
16.8126	-281.0000	1.0296
16.9120	-281.0000	1.0357
17.0130	-281.0000	1.0321
17.1131	-281.0000	1.0332
17.2140	-281.0000	1.0330
17.3141	-281.0000	1.0311
17.4147	-281.0000	1.0371
17.5148	-281.0000	1.0350
17.6148	-281.0000	1.0418
17.7146	-281.0000	1.0375
17.8157	-281.0000	1.0375
17.9153	-281.0000	1.0357
18.0161	-281.0000	1.0358
18.1169	-281.0000	1.0361
18.2172	-281.0000	1.0362
18.3179	-281.0000	1.0318
18.4186	-281.0000	1.0359
18.5185	-281.0000	1.0339
18.6186	-281.0000	1.0301
18.7185	-281.0000	1.0347
18.8184	-281.0000	1.0359
18.9189	-281.0000	1.0334
19.0192	-281.0000	1.0355
19.1200	-281.0000	1.0382
19.2206	-281.0000	1.0312
19.3199	-281.0000	1.0371
19.4212	-281.0000	1.0335
19.5213	-281.0000	1.0362
19.6215	-281.0000	1.0344
19.7215	-281.0000	1.0391
19.8216	-281.0000	1.0349
19.9216	-281.0000	1.0373
20.0214	-281.0000	1.0337
20.1215	-281.0000	1.0337
20.2216	-281.0000	1.0345
20.3216	-281.0000	1.0331
20.4224	-281.0000	1.0380
20.5228	-281.0000	1.0378
20.6223	-281.0000	1.0400
20.7228	-281.0000	1.0351
20.8230	-281.0000	1.0333
20.9232	-281.0000	1.0353
21.0237	-281.0000	1.0352
21.1238	-281.0000	1.0389
21.2239	-281.0000	1.0357
21.3239	-281.0000	1.0327
21.4237	-281.0000	1.0320
21.5236	-281.0000	1.0340
21.6248	-281.0000	1.0384
21.7249	-281.0000	1.0331
21.8266	-281.0000	1.0333
21.9265	-281.0000	1.0332
22.0278	-281.0000	1.0324
22.1269	-281.0000	1.0332
22.2281	-281.0000	1.0345
22.3293	-281.0000	1.0325
22.4293	-281.0000	1.0326
22.5290	-281.0000	1.0370
22.6292	-281.0000	1.0340
22.7293	-281.0000	1.0308
22.8291	-281.0000	1.0378
22.9292	-281.0000	1.0340
23.0290	-281.0000	1.0349
23.1293	-281.0000	1.0336
23.2292	-281.0000	1.0380
23.3292	-281.0000	1.0353
23.4292	-281.0000	1.0332
23.5293	-281.0000	1.0323
23.6319	-281.0000	1.0378
23.7317	-281.0000	1.0341
23.8313	-281.0000	1.0308
23.9314	-281.0000	1.0349
24.0317	-280.8270	1.0394
24.1547	-280.4450	1.0619
24.2545	-279.9950	1.0241
24.3543	-280.0000	1.0416
24.4543	-280.0000	1.0372
24.5549	-280.0000	1.0431
24.6546	-280.0000	1.0418
24.7559	-280.0000	1.0428
24.8557	-280.0000	1.0423
24.9559	-280.0000	1.0405
25.0562	-280.0000	1.0399
25.1567	-280.0000	1.0414
25.2564	-280.0000	1.0374
25.3568	-280.0000	1.0401
25.4571	-280.0000	1.0430
25.5580	-280.0000	1.0459
25.6590	-280.0000	1.0377
25.7605	-280.0000	1.0387
25.8612	-280.0000	1.0413
25.9612	-280.0000	1.0369
26.0616	-280.0000	1.0436
26.1612	-280.0000	1.0373
26.2610	-280.0000	1.0402
26.3616	-280.0000	1.0384
26.4635	-280.0000	1.0360
26.5632	-280.0000	1.0376
26.6639	-280.0000	1.0407
26.7659	-280.0000	1.0433
26.8641	-280.0000	1.0447
26.9660	-280.0000	1.0365
27.0665	-280.0000	1.0412
27.1666	-280.0000	1.0379
27.2675	-280.0000	1.0404
27.3672	-280.0000	1.0386
27.4673	-280.0000	1.0364
27.5688	-280.0000	1.0406
27.6685	-280.0000	1.0420
27.7685	-280.0000	1.0372
27.8682	-280.0000	1.0386
27.9697	-280.0000	1.0364
28.0706	-280.0000	1.0345
28.1703	-280.0000	1.0410
28.2700	-280.0000	1.0365
28.3704	-280.0000	1.0397
28.4712	-280.0000	1.0418
28.5714	-280.0000	1.0361
28.6715	-280.0000	1.0396
28.7711	-280.0000	1.0415
28.8710	-280.0000	1.0400
28.9713	-280.0000	1.0374
29.0722	-280.0000	1.0391
29.1713	-280.0000	1.0412
29.2718	-280.0000	1.0397
29.3713	-280.0000	1.0376
29.4716	-280.0000	1.0353
29.5717	-280.0000	1.0377
29.6711	-280.0000	1.0370
29.7711	-280.0000	1.0412
29.8722	-280.0000	1.0421
29.9724	-280.0000	1.0488
30.0723	-280.0000	1.0470
30.1729	-280.0000	1.0460
30.2731	-280.0000	1.0427
30.3731	-280.0000	1.0431
30.4732	-280.0000	1.0416
30.5748	-280.0000	1.0393
30.6745	-280.0000	1.0396
30.7744	-280.0000	1.0396
30.8750	-280.0000	1.0443
30.9759	-280.0000	1.0399
31.0762	-280.0000	1.0391
31.1770	-280.0000	1.0372
31.2768	-280.0000	1.0447
31.3776	-280.0000	1.0468
31.4780	-280.0000	1.0415
31.5783	-280.0000	1.0400
31.6783	-280.0000	1.0384
31.7794	-280.0000	1.0415
31.8793	-280.0000	1.0431
31.9799	-280.0000	1.0367
32.0793	-280.0000	1.0346
32.1793	-280.0000	1.0393
32.2793	-280.0000	1.0433
32.3793	-280.0000	1.0390
32.4792	-280.0000	1.0397
32.5795	-280.0000	1.0355
32.6796	-280.0000	1.0406
32.7790	-280.0000	1.0398
32.8793	-280.0000	1.0390
32.9796	-280.0000	1.0316
33.0793	-280.0000	1.0421
33.1793	-280.0000	1.0349
33.2803	-280.0000	1.0428
33.3806	-280.0000	1.0361
33.4819	-280.0000	1.0434
33.5811	-280.0000	1.0377
33.6811	-280.0000	1.0349
33.7813	-280.0000	1.0456
33.8818	-280.0000	1.0425
33.9813	-280.0000	1.0378
34.0815	-280.0000	1.0413
34.1814	-280.0000	1.0344
34.2813	-280.0000	1.0440
34.3814	-280.0000	1.0432
34.4816	-280.0000	1.0426
34.5815	-280.0000	1.0410
34.6825	-280.0000	1.0423
34.7833	-280.0000	1.0405
34.8835	-280.0000	1.0419
34.9833	-280.0000	1.0435
35.0830	-280.0000	1.0386
35.1839	-280.0000	1.0424
35.2838	-280.0000	1.0392
35.3833	-280.0000	1.0417
35.4831	-280.0000	1.0411
35.5835	-280.0000	1.0396
35.6831	-280.0000	1.0348
35.7838	-280.0000	1.0435
35.8831	-280.0000	1.0404
35.9837	-280.0000	1.0441
36.0843	-280.0000	1.0456
36.1845	-280.0000	1.0399
36.2847	-280.0000	1.0375
36.3847	-280.0000	1.0391
36.4843	-280.0000	1.0391
36.5843	-280.0000	1.0368
36.6852	-280.0000	1.0389
36.7862	-280.0000	1.0433
36.8865	-280.0000	1.0423
36.9878	-280.0000	1.0365
37.0877	-280.0000	1.0390
37.1871	-280.0000	1.0405
37.2884	-280.0000	1.0428
37.3891	-280.0000	1.0392
37.4894	-280.0000	1.0374
37.5898	-280.0000	1.0421
37.6902	-280.0000	1.0423
37.7920	-280.0000	1.0367
37.8917	-280.0000	1.0375
37.9914	-280.0000	1.0409
38.0915	-280.0000	1.0413
38.1914	-280.0000	1.0406
38.2918	-280.0000	1.0405
38.3916	-280.0000	1.0400
38.4916	-280.0000	1.0369
38.5914	-280.0000	1.0428
38.6918	-280.0000	1.0436
38.7914	-280.0000	1.0440
38.8916	-280.0000	1.0420
38.9918	-280.0000	1.0369
39.0913	-280.0000	1.0398
39.1914	-280.0000	1.0415
39.2918	-280.0000	1.0403
39.3916	-280.0000	1.0419
39.4918	-280.0000	1.0398
39.5918	-280.0000	1.0402
39.6919	-280.0000	1.0441
39.7925	-280.0000	1.0407
39.8923	-280.0000	1.0394
39.9927	-280.0000	1.0447
40.0924	-280.0000	1.0424
40.1933	-280.0000	1.0423
40.2949	-280.0000	1.0407
40.3954	-280.0000	1.0426
40.4954	-280.0000	1.0449
40.5967	-280.0000	1.0468
40.6963	-280.0000	1.0449
40.7965	-280.0000	1.0377
40.8972	-280.0000	1.0395
40.9975	-280.0000	1.0433
41.0982	-280.0000	1.0446
41.1985	-280.0000	1.0406
41.2984	-280.0000	1.0423
41.3987	-280.0000	1.0388
41.4982	-280.0000	1.0389
41.5983	-280.0000	1.0417
41.6985	-280.0000	1.0439
41.7985	-280.0000	1.0382
41.8995	-280.0000	1.0360
41.9995	-280.0000	1.0370
42.1009	-280.0000	1.0415
42.2021	-280.0000	1.0372
42.3014	-280.0000	1.0386
42.4015	-280.0000	1.0351
42.5018	-280.0000	1.0427
42.6031	-280.0000	1.0410
42.7027	-280.0000	1.0413
42.8025	-280.0000	1.0426
42.9036	-280.0000	1.0412
43.0032	-280.0000	1.0446
43.1033	-280.0000	1.0386
43.2040	-280.0000	1.0415
43.3037	-280.0000	1.0450
43.4051	-280.0000	1.0420
43.5045	-280.0000	1.0468
43.6043	-280.0000	1.0333
43.7044	-280.0000	1.0381
43.8047	-280.0000	1.0443
43.9043	-280.0000	1.0421
44.0052	-280.0000	1.0389
44.1054	-280.0000	1.0531
44.2061	-280.0000	1.0366
44.3054	-280.0000	1.0414
44.4061	-280.0000	1.0413
44.5054	-280.0000	1.0404
44.6060	-280.0000	1.0383
44.7063	-280.0000	1.0479
44.8072	-280.0000	1.0402
44.9071	-280.0000	1.0385
45.0079	-280.0000	1.0370
45.1082	-280.0000	1.0444
45.2091	-280.0000	1.0418
45.3100	-280.0000	1.0369
45.4095	-280.0000	1.0416
45.5094	-280.0000	1.0428
45.6095	-280.0000	1.0432
45.7095	-280.0000	1.0409
45.8095	-280.0000	1.0385
45.9094	-280.0000	1.0404
46.0097	-280.0000	1.0436
46.1095	-280.0000	1.0461
46.2098	-280.0000	1.0364
46.3094	-280.0000	1.0375
46.4096	-280.0000	1.0415
46.5095	-280.0000	1.0363
46.6102	-280.0000	1.0340
46.7112	-280.0000	1.0408
46.8112	-280.0000	1.0371
46.9118	-280.0000	1.0447
47.0118	-280.0000	1.0300
47.1118	-280.0000	1.0376
47.2118	-280.0000	1.0414
47.3119	-280.0000	1.0311
47.4118	-280.0000	1.0451
47.5119	-280.0000	1.0352
47.6119	-280.0000	1.0407
47.7124	-280.0000	1.0343
47.8132	-280.0000	1.0423
47.9129	-280.0000	1.0458
48.0135	-280.0000	1.0350
48.1135	-280.0000	1.0470
48.2138	-280.0000	1.0420
48.3134	-280.0000	1.0398
48.4138	-280.0000	1.0396
48.5150	-280.0000	1.0392
48.6147	-280.0000	1.0434
48.7144	-280.0000	1.0421
48.8144	-280.0000	1.0349
48.9145	-280.0000	1.0394
49.0161	-280.0000	1.0424
49.1155	-280.0000	1.0421
49.2167	-280.0000	1.0407
49.3170	-280.0000	1.0400
49.4165	-280.0000	1.0409
49.5179	-280.0000	1.0385
49.6176	-280.0000	1.0419
49.7174	-280.0000	1.0398
49.8184	-280.0000	1.0414
49.9182	-280.0000	1.0388
50.0187	-280.0000	1.0387
50.1189	-280.0000	1.0428
50.2185	-280.0000	1.0427
50.3185	-280.0000	1.0419
50.4189	-280.0000	1.0411
50.5189	-280.0000	1.0375
50.6195	-280.0000	1.0400
50.7195	-280.0000	1.0412
50.8203	-280.0000	1.0382
50.9202	-280.0000	1.0372
51.0205	-280.0000	1.0384
51.1203	-280.0000	1.0423
51.2213	-280.0000	1.0359
51.3213	-280.0000	1.0438
51.4220	-280.0000	1.0400
51.5224	-280.0000	1.0443
51.6224	-280.0000	1.0399
51.7234	-280.0000	1.0362
51.8233	-280.0000	1.0375
51.9245	-280.0000	1.0448
52.0257	-280.0000	1.0451
52.1259	-280.0000	1.0378
52.2258	-280.0000	1.0422
52.3254	-280.0000	1.0414
52.4256	-280.0000	1.0383
52.5263	-280.0000	1.0451
52.6267	-280.0000	1.0408
52.7268	-280.0000	1.0407
52.8271	-280.0000	1.0464
52.9263	-280.0000	1.0417
53.0264	-280.0000	1.0405
53.1266	-280.0000	1.0445
53.2269	-280.0000	1.0403
53.3272	-280.0000	1.0417
53.4263	-280.0000	1.0410
53.5270	-280.0000	1.0437
53.6272	-280.0000	1.0422
53.7264	-280.0000	1.0388
53.8282	-280.0000	1.0362
53.9279	-280.0000	1.0448
54.0278	-280.0000	1.0362
54.1282	-280.0000	1.0375
54.2277	-280.0000	1.0358
54.3275	-280.0000	1.0444
54.4281	-280.0000	1.0425
54.5277	-280.0000	1.0310
54.6280	-280.0000	1.0411
54.7282	-280.0000	1.0364
54.8284	-280.0000	1.0379
54.9282	-280.0000	1.0538
55.0275	-280.0000	1.0360
55.1283	-280.0000	1.0403
55.2287	-280.0000	1.0513
55.3290	-280.0000	1.0336
55.4283	-280.0000	1.0380
55.5286	-280.0000	1.0434
55.6285	-280.0000	1.0446
55.7293	-280.0000	1.0372
55.8286	-280.0000	1.0419
55.9286	-280.0000	1.0455
56.0283	-280.0000	1.0452
56.1287	-280.0000	1.0393
56.2291	-280.0000	1.0405
56.3285	-280.0000	1.0328
56.4285	-280.0000	1.0428
56.5283	-280.0000	1.0471
56.6283	-280.0000	1.0437
56.7286	-280.0000	1.0419
56.8302	-280.0000	1.0383
56.9302	-280.0000	1.0418
57.0312	-280.0000	1.0444
57.1316	-280.0000	1.0365
57.2320	-280.0000	1.0405
57.3319	-280.0000	1.0434
57.4316	-280.0000	1.0350
57.5319	-280.0000	1.0363
57.6321	-280.0000	1.0399
57.7320	-280.0000	1.0437
57.8315	-280.0000	1.0392
57.9317	-280.0000	1.0330
58.0315	-280.0000	1.0425
58.1320	-280.0000	1.0413
58.2327	-280.0000	1.0413
58.3323	-280.0000	1.0421
58.4327	-280.0000	1.0411
58.5334	-280.0000	1.0418
58.6336	-280.0000	1.0417
58.7339	-280.0000	1.0371
58.8343	-280.0000	1.0354
58.9343	-280.0000	1.0392
59.0352	-280.0000	1.0448
59.1350	-280.0000	1.0455
59.2347	-280.0000	1.0383
59.3349	-280.0000	1.0392
59.4353	-280.0000	1.0455
59.5360	-280.0000	1.0443
59.6369	-280.0000	1.0393
59.7370	-280.0000	1.0443
59.8369	-280.0000	1.0471
59.9367	-280.0000	1.0420
60.0372	-280.0000	1.0368
60.1374	-280.0000	1.0462
60.2382	-280.0000	1.0435
60.3376	-280.0000	1.0437
60.4381	-280.0000	1.0423
60.5383	-280.0000	1.0438
60.6376	-280.0000	1.0434
60.7376	-280.0000	1.0419
60.8380	-280.0000	1.0405
60.9381	-280.0000	1.0393
61.0383	-280.0000	1.0432
61.1379	-280.0000	1.0398
61.2387	-280.0000	1.0374
61.3386	-280.0000	1.0459
61.4394	-280.0000	1.0405
61.5396	-280.0000	1.0343
61.6412	-280.0000	1.0468
61.7418	-280.0000	1.0362
61.8419	-280.0000	1.0449
61.9419	-280.0000	1.0437
62.0414	-280.0000	1.0389
62.1416	-280.0000	1.0359
62.2429	-280.0000	1.0424
62.3428	-280.0000	1.0413
62.4446	-280.0000	1.0421
62.5440	-280.0000	1.0408
62.6439	-280.0000	1.0400
62.7434	-280.0000	1.0377
62.8444	-280.0000	1.0406
62.9457	-280.0000	1.0376
63.0457	-280.0000	1.0434
63.1456	-280.0000	1.0436
63.2454	-280.0000	1.0361
63.3467	-280.0000	1.0501
63.4469	-280.0000	1.0374
63.5466	-280.0000	1.0366
63.6476	-280.0000	1.0464
63.7484	-280.0000	1.0384
63.8489	-280.0000	1.0378
63.9487	-280.0000	1.0415
64.0500	-280.0000	1.0401
64.1496	-280.0000	1.0405
64.2506	-280.0000	1.0470
64.3510	-280.0000	1.0475
64.4507	-280.0000	1.0346
64.5506	-280.0000	1.0491
64.6523	-280.0000	1.0428
64.7521	-280.0000	1.0373
64.8521	-280.0000	1.0470
64.9517	-280.0000	1.0373
65.0518	-280.0000	1.0402
65.1517	-280.0000	1.0389
65.2517	-280.0000	1.0434
65.3516	-280.0000	1.0454
65.4519	-280.0000	1.0482
65.5521	-280.0000	1.0412
65.6518	-280.0000	1.0430
65.7520	-280.0000	1.0408
65.8520	-280.0000	1.0433
65.9518	-280.0000	1.0425
66.0519	-280.0000	1.0431
66.1520	-280.0000	1.0368
66.2521	-280.0000	1.0469
66.3532	-280.0000	1.0461
66.4526	-280.0000	1.0505
66.5531	-280.0000	1.0363
66.6533	-280.0000	1.0497
66.7524	-280.0000	1.0360
66.8529	-280.0000	1.0448
66.9524	-280.0000	1.0398
67.0528	-280.0000	1.0433
67.1533	-280.0000	1.0287
67.2532	-280.0000	1.0426
67.3530	-280.0000	1.0338
67.4531	-280.0000	1.0470
67.5533	-280.0000	1.0331
67.6533	-280.0000	1.0508
67.7526	-280.0000	1.0526
67.8527	-280.0000	1.0408
67.9527	-280.0000	1.0573
68.0531	-280.0000	1.0355
68.1527	-280.0000	1.0488
68.2531	-280.0000	1.0427
68.3532	-280.0000	1.0406
68.4533	-280.0000	1.0385
68.5530	-280.0000	1.0432
68.6539	-280.0000	1.0409
68.7547	-280.0000	1.0453
68.8548	-280.0000	1.0467
68.9548	-280.0000	1.0357
69.0547	-280.0000	1.0488
69.1553	-280.0000	1.0479
69.2549	-280.0000	1.0303
69.3548	-280.0000	1.0485
69.4547	-280.0000	1.0490
69.5564	-280.0000	1.0363
69.6567	-280.0000	1.0695
69.7565	-280.0000	1.0535
69.8565	-280.0000	1.0357
69.9574	-280.0000	1.0498
70.0567	-280.0000	1.0487
70.1567	-280.0000	1.0406
70.2572	-280.0000	1.0401
70.3574	-280.0000	1.0506
70.4567	-280.0000	1.0477
70.5570	-280.0000	1.0412
70.6567	-280.0000	1.0474
70.7565	-280.0000	1.0406
70.8577	-280.0000	1.0404
70.9576	-280.0000	1.0481
71.0584	-280.0000	1.0319
71.1581	-280.0000	1.0547
71.2580	-280.0000	1.0410
71.3581	-280.0000	1.0582
71.4584	-280.0000	1.0412
71.5582	-280.0000	1.0428
71.6580	-280.0000	1.0423
71.7581	-280.0000	1.0384
71.8579	-280.0000	1.0466
71.9578	-280.0000	1.0390
72.0580	-280.0000	1.0455
72.1593	-280.0000	1.0323
72.2587	-280.0000	1.0446
72.3587	-280.0000	1.0448
72.4597	-280.0000	1.0388
72.5598	-280.0000	1.0391
72.6598	-280.0000	1.0564
72.7597	-280.0000	1.0348
72.8598	-280.0000	1.0473
72.9597	-280.0000	1.0358
73.0601	-280.0000	1.0476
73.1597	-280.0000	1.0363
73.2598	-280.0000	1.0375
73.3598	-280.0000	1.0408
73.4598	-280.0000	1.0350
73.5597	-280.0000	1.0463
73.6599	-280.0000	1.0351
73.7598	-280.0000	1.0400
73.8600	-280.0000	1.0472
73.9595	-280.0000	1.0404
74.0608	-280.0000	1.0414
74.1611	-280.0000	1.0386
74.2621	-280.0000	1.0401
74.3615	-280.0000	1.0451
74.4618	-280.0000	1.0407
74.5617	-280.0000	1.0417
74.6617	-280.0000	1.0397
74.7634	-280.0000	1.0485
74.8644	-280.0000	1.0408
74.9640	-280.0000	1.0422
75.0647	-280.0000	1.0411
75.1645	-280.0000	1.0349
75.2647	-280.0000	1.0433
75.3656	-280.0000	1.0439
75.4657	-280.0000	1.0375
75.5687	-280.0000	1.0351
75.6681	-280.0000	1.0488
75.7678	-280.0000	1.0414
75.8675	-280.0000	1.0470
75.9690	-280.0000	1.0403
76.0694	-280.0000	1.0398
76.1688	-280.0000	1.0409
76.2687	-280.0000	1.0389
76.3693	-280.0000	1.0426
76.4686	-280.0000	1.0380
76.5687	-280.0000	1.0525
76.6690	-280.0000	1.0391
76.7695	-280.0000	1.0289
76.8698	-280.0000	1.0499
76.9709	-280.0000	1.0393
77.0711	-280.0000	1.0533
77.1716	-280.0000	1.0437
77.2718	-280.0000	1.0340
77.3720	-280.0000	1.0613
77.4720	-280.0000	1.0389
77.5717	-280.0000	1.0460
77.6717	-280.0000	1.0433
77.7723	-280.0000	1.0358
77.8722	-280.0000	1.0481
77.9722	-280.0000	1.0403
78.0717	-280.0000	1.0365
78.1726	-280.0000	1.0499
78.2735	-280.0000	1.0376
78.3737	-280.0000	1.0494
78.4741	-280.0000	1.0443
78.5752	-280.0000	1.0553
78.6756	-280.0000	1.0407
78.7764	-280.0000	1.0421
78.8760	-280.0000	1.0472
78.9761	-280.0000	1.0304
79.0761	-280.0000	1.0469
79.1765	-280.0000	1.0375
79.2763	-280.0000	1.0440
79.3764	-280.0000	1.0334
79.4762	-280.0000	1.0465
79.5767	-280.0000	1.0309
79.6772	-280.0000	1.0420
79.7771	-280.0000	1.0364
79.8772	-280.0000	1.0428
79.9773	-280.0000	1.0351
80.0774	-280.0000	1.0513
80.1767	-280.0000	1.0405
80.2774	-280.0000	1.0418
80.3772	-280.0000	1.0485
80.4766	-280.0000	1.0427
80.5767	-280.0000	1.0389
80.6772	-280.0000	1.0458
80.7770	-280.0000	1.0504
80.8768	-280.0000	1.0370
80.9773	-280.0000	1.0502
81.0777	-280.0000	1.0425
81.1778	-280.0000	1.0500
81.2778	-280.0000	1.0331
81.3781	-280.0000	1.0498
81.4780	-280.0000	1.0454
81.5780	-280.0000	1.0421
81.6778	-280.0000	1.0464
81.7778	-280.0000	1.0397
81.8776	-280.0000	1.0414
81.9778	-280.0000	1.0525
82.0787	-280.0000	1.0392
82.1790	-280.0000	1.0409
82.2792	-280.0000	1.0401
82.3797	-280.0000	1.0488
82.4799	-280.0000	1.0429
82.5799	-280.0000	1.0403
82.6805	-280.0000	1.0442
82.7808	-280.0000	1.0441
82.8823	-280.0000	1.0437
82.9828	-280.0000	1.0398
83.0826	-280.0000	1.0386
83.1838	-280.0000	1.0444
83.2844	-280.0000	1.0428
83.3848	-280.0000	1.0504
83.4857	-280.0000	1.0388
83.5863	-280.0000	1.0541
83.6865	-280.0000	1.0382
83.7859	-280.0000	1.0469
83.8857	-280.0000	1.0339
83.9866	-280.0000	1.0493
84.0863	-280.0000	1.0377
84.1858	-280.0000	1.0283
84.2868	-280.0000	1.0484
84.3884	-280.0000	1.0363
84.4880	-280.0000	1.0419
84.5882	-280.0000	1.0408
84.6877	-280.0000	1.0382
84.7887	-280.0000	1.0459
84.8891	-280.0000	1.0548
84.9891	-280.0000	1.0492
85.0896	-280.0000	1.0306
85.1891	-280.0000	1.0435
85.2896	-280.0000	1.0529
85.3899	-280.0000	1.0292
85.4896	-280.0000	1.0491
85.5900	-280.0000	1.0337
85.6902	-280.0000	1.0536
85.7896	-280.0000	1.0343
85.8897	-280.0000	1.0432
85.9901	-280.0000	1.0394
86.0899	-280.0000	1.0300
86.1899	-280.0000	1.0453
86.2899	-280.0000	1.0358
86.3899	-280.0000	1.0390
86.4906	-280.0000	1.0352
86.5905	-280.0000	1.0313
86.6912	-280.0000	1.0479
86.7910	-280.0000	1.0370
86.8911	-280.0000	1.0483
86.9917	-280.0000	1.0454
87.0907	-280.0000	1.0402
87.1912	-280.0000	1.0370
87.2925	-280.0000	1.0462
87.3934	-280.0000	1.0415
87.4932	-280.0000	1.0429
87.5931	-280.0000	1.0357
87.6939	-280.0000	1.0514
87.7938	-280.0000	1.0335
87.8940	-280.0000	1.0182
87.9939	-280.0000	1.0641
88.0940	-280.0000	1.0385
88.1937	-280.0000	1.0406
88.2943	-280.0000	1.0387
88.3950	-280.0000	1.0467
88.4950	-280.0000	1.0389
88.5948	-280.0000	1.0513
88.6954	-280.0000	1.0316
88.7948	-280.0000	1.0433
88.8949	-280.0000	1.0467
88.9960	-280.0000	1.0363
89.0959	-280.0000	1.0529
89.1965	-280.0000	1.0335
89.2969	-280.0000	1.0481
89.3977	-280.0000	1.0560
89.4979	-280.0000	1.0355
89.5977	-280.0000	1.0300
89.6983	-280.0000	1.0500
89.7986	-280.0000	1.0381
89.8986	-280.0000	1.0476
89.9996	-280.0000	1.0336
90.0993	-280.0000	1.0503
90.1988	-280.0000	1.0375
90.2990	-280.0000	1.0474
90.3992	-280.0000	1.0295
90.4987	-280.0000	1.0454
90.5990	-280.0000	1.0379
90.7003	-280.0000	1.0329
90.8000	-280.0000	1.0542
90.8997	-280.0000	1.0325
91.0010	-280.0000	1.0550
91.0999	-280.0000	1.0423
91.2000	-280.0000	1.0373
91.2999	-280.0000	1.0569
91.4008	-280.0000	1.0413
91.5015	-280.0000	1.0294
91.6016	-280.0000	1.0333
91.7009	-280.0000	1.0525
91.8011	-280.0000	1.0366
91.9016	-280.0000	1.0443
92.0018	-280.0000	1.0386
92.1021	-280.0000	1.0356
92.2023	-280.0000	1.0401
92.3023	-280.0000	1.0500
92.4023	-280.0000	1.0646
92.5021	-280.0000	1.0303
92.6022	-280.0000	1.0261
92.7027	-280.0000	1.0288
92.8029	-280.0000	1.0505
92.9036	-280.0000	1.0605
93.0034	-280.0000	1.0349
93.1033	-280.0000	1.0468
93.2029	-280.0000	1.0350
93.3031	-280.0000	1.0343
93.4035	-280.0000	1.0528
93.5031	-280.0000	1.0501
93.6036	-280.0000	1.0387
93.7027	-280.0000	1.0515
93.8027	-280.0000	1.0563
93.9029	-280.0000	1.0349
94.0030	-280.0000	1.0742
94.1034	-280.0000	1.0476
94.2028	-280.0000	1.0380
94.3031	-280.0000	1.0068
94.4029	-280.0000	1.0671
94.5032	-280.0000	1.0572
94.6027	-280.0000	1.0422
94.7048	-280.0000	1.0697
94.8057	-280.0000	1.0609
94.9047	-280.0000	1.0445
95.0047	-280.0000	1.0261
95.1050	-280.0000	1.0466
95.2053	-280.0000	1.0495
95.3049	-280.0000	1.0589
95.4056	-280.0000	1.0435
95.5052	-280.0000	1.0278
95.6057	-280.0000	1.0333
95.7049	-280.0000	1.0568
95.8065	-280.0000	1.0519
95.9061	-280.0000	1.0627
96.0067	-280.0000	1.0467
96.1066	-280.0000	1.0361
96.2063	-280.0000	1.0406
96.3063	-280.0000	1.0278
96.4065	-280.0000	1.0285
96.5068	-280.0000	1.0262
96.6073	-280.0000	1.0247
96.7078	-280.0000	1.0456
96.8080	-280.0000	1.0415
96.9083	-280.0000	1.0402
97.0085	-280.0000	1.0392
97.1081	-280.0000	1.0256
97.2086	-280.0000	1.0294
97.3083	-280.0000	1.0413
97.4081	-280.0000	1.0270
97.5082	-280.0000	1.0301
97.6080	-280.0000	1.0147
97.7081	-280.0000	1.0461
97.8079	-280.0000	1.0365
97.9082	-280.0000	1.0262
98.0080	-280.0000	1.0507
98.1079	-280.0000	1.0237
98.2090	-280.0000	1.0562
98.3099	-280.0000	1.0468
98.4100	-280.0000	1.0403
98.5101	-280.0000	1.0292
98.6099	-280.0000	1.0283
98.7100	-280.0000	1.0305
98.8100	-280.0000	1.0442
98.9101	-280.0000	1.0372
99.0100	-280.0000	1.0588
99.1099	-280.0000	1.0311
99.2106	-280.0000	1.0298
99.3111	-280.0000	1.0520
99.4126	-280.0000	1.0480
99.5119	-280.0000	1.0518
99.6121	-280.0000	1.0416
99.7122	-280.0000	1.0262
99.8123	-280.0000	1.0272
99.9122	-280.0000	1.0379
100.0130	-280.0000	1.0289
100.1129	-280.0000	1.0364
100.2134	-280.0000	1.0336
100.3130	-280.0000	1.0399
100.4140	-280.0000	1.0443
100.5142	-280.0000	1.0275
100.6143	-280.0000	1.0528
100.7140	-280.0000	1.0569
100.8141	-280.0000	1.0512
100.9143	-280.0000	1.0302
101.0144	-280.0000	1.0384
101.1150	-280.0000	1.0335
101.2159	-280.0000	1.0531
101.3149	-280.0000	1.0365
101.4156	-280.0000	1.0476
101.5154	-280.0000	1.0438
101.6167	-280.0000	1.0332
101.7160	-280.0000	1.0493
101.8160	-280.0000	1.0393
101.9160	-280.0000	1.0341
102.0163	-280.0000	1.0358
102.1167	-280.0000	1.0281
102.2160	-280.0000	1.0319
102.3160	-280.0000	1.0469
102.4165	-280.0000	1.0206
102.5166	-280.0000	1.0591
102.6160	-280.0000	1.0348
102.7160	-280.0000	1.0552
102.8158	-280.0000	1.0580
102.9167	-280.0000	1.0483
103.0162	-280.0000	1.0487
103.1164	-280.0000	1.0539
103.2161	-280.0000	1.0563
103.3168	-280.0000	1.0371
103.4169	-280.0000	1.0323
103.5179	-280.0000	1.0357
103.6187	-280.0000	1.0402
103.7186	-280.0000	1.0500
103.8180	-280.0000	1.0514
103.9180	-280.0000	1.0768
104.0181	-280.0000	1.0753
104.1199	-280.0000	1.0571
104.2201	-280.0000	1.0327
104.3201	-280.0000	1.0319
104.4205	-280.0000	1.0309
104.5201	-280.0000	1.0305
104.6201	-280.0000	1.0410
104.7201	-280.0000	1.0656
104.8211	-280.0000	1.0547
104.9227	-280.0000	1.0551
105.0234	-280.0000	1.0343
105.1231	-280.0000	1.0301
105.2236	-280.0000	1.0342
105.3237	-280.0000	1.0421
105.4231	-280.0000	1.0479
105.5231	-280.0000	1.0297
105.6234	-280.0000	1.0475
105.7237	-280.0000	1.0397
105.8235	-280.0000	1.0529
105.9237	-280.0000	1.0600
106.0235	-280.0000	1.0394
106.1228	-280.0000	1.0287
106.2230	-280.0000	1.0321
106.3231	-280.0000	1.0521
106.4233	-280.0000	1.0572
106.5234	-280.0000	1.0376
106.6241	-280.0000	1.0338
106.7243	-280.0000	1.0265
106.8244	-280.0000	1.0307
106.9246	-280.0000	1.0406
107.0239	-280.0000	0.9785
107.1246	-280.0000	1.0400
107.2240	-280.0000	1.0396
107.3258	-280.0000	1.0371
107.4260	-280.0000	1.0740
107.5268	-280.0000	1.0416
107.6268	-280.0000	1.0379
107.7269	-280.0000	1.0523
107.8277	-280.0000	1.0303
107.9277	-280.0000	1.0436
108.0283	-280.0000	1.0506
108.1283	-280.0000	1.0406
108.2284	-280.0000	1.0307
108.3281	-280.0000	1.0446
108.4280	-280.0000	1.0497
108.5291	-280.0000	1.0304
108.6294	-280.0000	1.0430
108.7301	-280.0000	1.0403
108.8301	-280.0000	1.0343
108.9302	-280.0000	1.0136
109.0300	-280.0000	1.0495
109.1301	-280.0000	1.0305
109.2301	-280.0000	1.0558
109.3302	-280.0000	1.0408
109.4300	-280.0000	1.0494
109.5301	-280.0000	1.0379
109.6301	-280.0000	1.0473
109.7301	-280.0000	1.0471
109.8301	-280.0000	1.0402
109.9302	-280.0000	1.0418
110.0301	-280.0000	1.0521
110.1302	-280.0000	1.0367
110.2300	-280.0000	1.0491
110.3302	-280.0000	1.0350
110.4303	-280.0000	1.0484
110.5302	-280.0000	1.0435
110.6301	-280.0000	1.0476
110.7302	-280.0000	1.0267
110.8302	-280.0000	1.0517
110.9300	-280.0000	1.0519
111.0301	-280.0000	1.0301
111.1302	-280.0000	1.0284
111.2301	-280.0000	1.0325
111.3309	-280.0000	1.0438
111.4314	-280.0000	1.0383
111.5310	-280.0000	1.0457
111.6317	-280.0000	1.0462
111.7312	-280.0000	1.0450
111.8314	-280.0000	1.0320
111.9311	-280.0000	1.0293
112.0310	-280.0000	1.0500
112.1316	-280.0000	1.0487
112.2313	-280.0000	1.0317
112.3310	-280.0000	1.0295
112.4325	-280.0000	1.0280
112.5337	-280.0000	1.0448
112.6331	-280.0000	1.0131
112.7341	-280.0000	1.0594
112.8341	-280.0000	1.0441
112.9346	-280.0000	1.0634
113.0356	-280.0000	1.0679
113.1361	-280.0000	1.0539
113.2351	-280.0000	1.0574
113.3356	-280.0000	1.0598
113.4351	-280.0000	1.0550
113.5359	-280.0000	1.0429
113.6367	-280.0000	1.0489
113.7359	-280.0000	1.0417
113.8368	-280.0000	1.0674
113.9371	-280.0000	1.0520
114.0380	-280.0000	1.0578
114.1382	-280.0000	1.0410
114.2382	-280.0000	1.0352
114.3385	-280.0000	1.0538
114.4383	-280.0000	1.0392
114.5382	-280.0000	1.0298
114.6390	-280.0000	1.0404
114.7390	-280.0000	1.0542
114.8392	-280.0000	1.0472
114.9395	-280.0000	1.0325
115.0396	-280.0000	1.0438
115.1397	-280.0000	1.0481
115.2406	-280.0000	1.0406
115.3402	-280.0000	1.0316
115.4408	-280.0000	1.0365
115.5402	-280.0000	1.0501
115.6400	-280.0000	1.0435
115.7401	-280.0000	1.0413
115.8402	-280.0000	1.0355
115.9408	-280.1470	1.0471
116.0617	-280.5610	1.0297
116.1619	-281.2120	1.0379
116.2612	-281.8950	1.0357
116.3616	-282.5440	1.0343
116.4616	-283.2280	1.0257
116.5626	-283.9120	1.0388
116.6621	-284.5620	1.0183
116.7640	-285.2450	1.0068
116.8641	-285.8950	1.0230
116.9642	-286.5790	1.0256
117.0642	-287.2280	0.9946
117.1640	-287.9110	0.9905
117.2652	-288.5950	0.9949
117.3668	-289.2450	1.0043
117.4667	-289.9280	1.0052
117.5664	-290.5780	0.9751
117.6662	-291.2610	0.9628
117.7663	-291.9450	0.9654
117.8674	-292.5940	0.9707
117.9681	-293.2780	0.9147
118.0690	-293.9270	0.9193
118.1692	-294.6110	0.8942
118.2709	-295.2950	0.8789
118.3703	-295.9440	0.8675
118.4713	-296.6270	0.8504
118.5712	-297.2760	0.8262
118.6712	-297.9610	0.8052
118.7721	-298.6100	0.7824
118.8722	-299.2960	0.7562
118.9731	-299.9790	0.7228
119.0745	-300.6290	0.6982
119.1744	-301.3150	0.6810
119.2752	-301.9980	0.6522
119.3762	-302.6480	0.5931
119.4768	-303.3310	0.5247
119.5762	-303.9810	0.4715
119.6772	-304.6640	0.4132
119.7772	-305.3140	0.3487
119.8779	-305.9980	0.2677
119.9773	-306.6810	0.1889
120.0781	-307.3310	0.1047
120.1784	-308.0140	0.0015
120.2798	-308.6640	-0.1142
120.3802	-309.3470	-0.2385
120.4803	-310.0310	-0.3873
120.5801	-310.6800	-0.5567
120.6800	-311.3290	-0.7130
120.7802	-312.0160	-0.9638
120.8803	-312.6650	-1.1422
120.9816	-313.3510	-1.4171
121.0816	-314.0340	-1.6807
121.1818	-314.6840	-1.9908
121.2825	-315.3670	-2.3264
121.3824	-316.0170	-2.7078
121.4820	-316.6960	-3.0973
121.5825	-316.8020	-3.4965
121.6823	-316.8010	-3.9620
121.7825	-316.8010	-4.2458
121.8824	-316.8010	-3.9151
121.9824	-316.8010	-3.6995
122.0825	-316.8010	-3.5710
122.1826	-316.8010	-3.4753
122.2826	-316.8000	-3.4243
122.3823	-316.8000	-3.3571
122.4827	-316.8000	-3.3162
122.5822	-316.8000	-3.2826
122.6826	-316.8000	-3.2480
122.7827	-316.8000	-3.2177
122.8825	-316.8000	-3.1898
122.9822	-316.8000	-3.1650
123.0825	-316.8000	-3.1451
123.1826	-316.8000	-3.1269
123.2821	-316.8000	-3.1067
123.3825	-316.8000	-3.0875
123.4826	-316.8000	-3.0674
123.5825	-316.8000	-3.0607
123.6831	-316.8000	-3.0464
123.7834	-316.8000	-3.0302
123.8835	-316.8000	-3.0199
123.9850	-316.8000	-3.0126
124.0844	-316.8000	-3.0005
124.1848	-316.8000	-2.9871
124.2840	-316.8000	-2.9840
124.3849	-316.8000	-2.9681
124.4845	-316.8000	-2.9553
124.5842	-316.8000	-2.9459
124.6841	-316.8000	-2.9434
124.7842	-316.8000	-2.9242
124.8847	-316.8000	-2.9323
124.9858	-316.8000	-2.9123
125.0878	-316.8000	-2.9105
125.1866	-316.8000	-2.9075
125.2865	-316.8000	-2.8901
125.3873	-316.8000	-2.8916
125.4879	-316.8000	-2.8781
125.5876	-316.8000	-2.8803
125.6875	-316.8000	-2.8729
125.7872	-316.8000	-2.8606
125.8880	-316.8000	-2.8620
125.9891	-316.8000	-2.8567
126.0893	-316.8000	-2.8510
126.1891	-316.8000	-2.8484
126.2893	-316.8000	-2.8373
126.3900	-316.8000	-2.8259
126.4900	-316.8000	-2.8205
126.5892	-316.8000	-2.8280
126.6898	-316.8000	-2.8102
126.7898	-316.8000	-2.8221
126.8893	-316.8000	-2.8016
126.9898	-316.8000	-2.7952
127.0900	-316.8000	-2.7991
127.1897	-316.8000	-2.8017
127.2903	-316.8000	-2.7798
127.3908	-316.8000	-2.7810
127.4909	-316.8000	-2.7825
127.5902	-316.8000	-2.7762
127.6903	-316.8000	-2.7780
127.7903	-316.8000	-2.7571
127.8903	-316.8000	-2.7736
127.9907	-316.8000	-2.7618
128.0918	-316.8000	-2.7586
128.1916	-316.8000	-2.7552
128.2917	-316.8000	-2.7541
128.3912	-316.8000	-2.7396
128.4919	-316.8000	-2.7566
128.5917	-316.8000	-2.7430
128.6919	-316.8000	-2.7354
128.7915	-316.8000	-2.7414
128.8913	-316.8000	-2.7305
128.9931	-316.8000	-2.7301
129.0939	-316.8000	-2.7265
129.1935	-316.8000	-2.7220
129.2947	-316.8000	-2.7166
129.3951	-316.8000	-2.7202
129.4955	-316.8000	-2.7145
129.5957	-316.8000	-2.7114
129.6960	-316.8000	-2.7091
129.7965	-316.8000	-2.7056
129.8972	-316.8000	-2.7027
129.9977	-316.8000	-2.6933
130.0979	-316.8000	-2.6980
130.1978	-316.8000	-2.7015
130.2981	-316.8000	-2.6861
130.3990	-316.8000	-2.6927
130.4984	-316.8000	-2.6850
130.5985	-316.8000	-2.6913
130.6993	-316.8000	-2.6772
130.8001	-316.8000	-2.6853
130.8994	-316.8000	-2.6697
130.9996	-316.8000	-2.6833
131.1003	-316.8000	-2.6675
131.2004	-316.8000	-2.6657
131.3012	-316.8000	-2.6761
131.4023	-316.8000	-2.6603
131.5025	-316.8000	-2.6710
131.6033	-316.8000	-2.6619
131.7042	-316.8000	-2.6607
131.8051	-316.8000	-2.6646
131.9045	-316.8000	-2.6542
132.0045	-316.8000	-2.6523
132.1043	-316.8000	-2.6494
132.2041	-316.8000	-2.6505
132.3053	-316.8000	-2.6480
132.4056	-316.8000	-2.6455
132.5056	-316.8000	-2.6328
132.6054	-316.8000	-2.6493
132.7051	-316.8000	-2.6429
132.8061	-316.8000	-2.6388
132.9063	-316.8000	-2.6376
133.0091	-316.8000	-2.6341
133.1075	-316.8000	-2.6301
133.2074	-316.8000	-2.6295
133.3090	-316.8000	-2.6251
133.4087	-316.8000	-2.6279
133.5084	-316.8000	-2.6271
133.6082	-316.8000	-2.6218
133.7083	-316.8000	-2.6202
133.8102	-316.8000	-2.6193
133.9103	-316.8000	-2.6217
134.0104	-316.8000	-2.6187
134.1125	-316.8000	-2.6158
134.2126	-316.8000	-2.6174
134.3123	-316.8000	-2.6139
134.4123	-316.8000	-2.6128
134.5135	-316.8000	-2.6113
134.6133	-316.8000	-2.6076
134.7133	-316.8000	-2.6059
134.8134	-316.8000	-2.6027
134.9139	-316.8000	-2.6080
135.0138	-316.8000	-2.5969
135.1133	-316.8000	-2.5972
135.2139	-316.8000	-2.5994
135.3137	-316.8000	-2.5991
135.4139	-316.8000	-2.5903
135.5138	-316.8000	-2.5953
135.6148	-316.8000	-2.5932
135.7151	-316.8000	-2.5889
135.8147	-316.8000	-2.5827
135.9150	-316.8000	-2.5930
136.0151	-316.8000	-2.5753
136.1152	-316.8000	-2.5879
136.2156	-316.8000	-2.5843
136.3159	-316.8000	-2.5812
136.4161	-316.8000	-2.5769
136.5161	-316.8000	-2.5817
136.6158	-316.8000	-2.5774
136.7161	-316.8000	-2.5710
136.8160	-316.8000	-2.5773
136.9163	-316.8000	-2.5734
137.0171	-316.8000	-2.5701
137.1169	-316.8000	-2.5638
137.2174	-316.8000	-2.5760
137.3173	-316.8000	-2.5627
137.4172	-316.8000	-2.5719
137.5178	-316.8000	-2.5602
137.6183	-316.8000	-2.5639
137.7185	-316.8000	-2.5624
137.8186	-316.8000	-2.5612
137.9186	-316.8000	-2.5540
138.0185	-316.8000	-2.5618
138.1186	-316.8000	-2.5569
138.2186	-316.8000	-2.5562
138.3183	-316.8000	-2.5522
138.4184	-316.8000	-2.5553
138.5191	-316.8000	-2.5550
138.6200	-316.8000	-2.5413
138.7198	-316.8000	-2.5541
138.8211	-316.8000	-2.5442
138.9210	-316.8000	-2.5506
139.0205	-316.8000	-2.5457
139.1205	-316.8000	-2.5441
139.2205	-316.8000	-2.5429
139.3218	-316.8000	-2.5427
139.4214	-316.8000	-2.5418
139.5227	-316.8000	-2.5433
139.6226	-316.8000	-2.5362
139.7222	-316.8000	-2.5359
139.8229	-316.8000	-2.5388
139.9226	-316.8000	-2.5374
140.0226	-316.8000	-2.5341
140.1222	-316.8000	-2.5326
140.2224	-316.8000	-2.5271
140.3226	-316.8000	-2.5314
140.4224	-316.8000	-2.5319
140.5222	-316.8000	-2.5264
140.6225	-316.8000	-2.5300
140.7231	-316.8000	-2.5285
140.8227	-316.8000	-2.5269
140.9222	-316.8000	-2.5289
141.0229	-316.8000	-2.5258
141.1224	-316.8000	-2.5224
141.2239	-316.8000	-2.5167
141.3232	-316.8000	-2.5183
141.4240	-316.8000	-2.5211
141.5239	-316.8000	-2.5207
141.6237	-316.8000	-2.5187
141.7239	-316.8000	-2.5121
141.8241	-316.8000	-2.5211
141.9249	-316.8000	-2.5140
142.0247	-316.8000	-2.5175
142.1253	-316.8000	-2.5154
142.2264	-316.8000	-2.5121
142.3279	-316.8000	-2.5054
142.4279	-316.8000	-2.5110
142.5282	-316.8000	-2.5065
142.6282	-316.8000	-2.5139
142.7276	-316.8000	-2.5053
142.8290	-316.8000	-2.5074
142.9293	-316.8000	-2.5064
143.0308	-316.8000	-2.5015
143.1303	-316.8000	-2.5033
143.2313	-316.8000	-2.4982
143.3319	-316.8000	-2.5037
143.4318	-316.8000	-2.5026
143.5326	-316.8000	-2.5003
143.6329	-316.8000	-2.5027
143.7329	-316.8000	-2.4968
143.8327	-316.8000	-2.4991
143.9337	-316.8000	-2.5013
144.0334	-316.8000	-2.4989
144.1352	-316.8000	-2.4941
144.2347	-316.8000	-2.4927
144.3344	-316.8000	-2.4950
144.4343	-316.8000	-2.4914
144.5343	-316.8000	-2.4913
144.6347	-316.8000	-2.4902
144.7356	-316.8000	-2.4912
144.8353	-316.8000	-2.4876
144.9357	-316.8000	-2.4888
145.0362	-316.8000	-2.4879
145.1355	-316.8000	-2.4893
145.2359	-316.8000	-2.4854
145.3362	-316.8000	-2.4821
145.4356	-316.8000	-2.4821
145.5356	-316.8000	-2.4814
145.6359	-316.8000	-2.4827
145.7357	-316.8000	-2.4805
145.8355	-316.8000	-2.4792
145.9364	-316.8000	-2.4775
146.0364	-316.8000	-2.4803
146.1365	-316.8000	-2.4789
146.2366	-316.8000	-2.4729
146.3375	-316.8000	-2.4784
146.4374	-316.8000	-2.4727
146.5385	-316.8000	-2.4738
146.6385	-316.8000	-2.4777
146.7386	-316.8000	-2.4748
146.8392	-316.8000	-2.4718
146.9395	-316.8000	-2.4728
147.0394	-316.8000	-2.4682
147.1399	-316.8000	-2.4704
147.2396	-316.8000	-2.4697
147.3394	-316.8000	-2.4639
147.4405	-316.8000	-2.4671
147.5405	-316.8000	-2.4696
147.6403	-316.8000	-2.4646
147.7404	-316.8000	-2.4660
147.8406	-316.8000	-2.4667
147.9406	-316.8000	-2.4669
148.0403	-316.8000	-2.4624
148.1415	-316.8000	-2.4671
148.2413	-316.8000	-2.4629
148.3422	-316.8000	-2.4633
148.4430	-316.8000	-2.4581
148.5428	-316.8000	-2.4605
148.6427	-316.8000	-2.4613
148.7427	-316.8000	-2.4582
148.8442	-316.8000	-2.4571
148.9444	-316.8000	-2.4535
149.0450	-316.8000	-2.4604
149.1446	-316.8000	-2.4555
149.2459	-316.8000	-2.4521
149.3456	-316.8000	-2.4553
149.4453	-316.8000	-2.4530
149.5456	-316.8000	-2.4488
149.6458	-316.8000	-2.4503
149.7466	-316.8000	-2.4534
149.8472	-316.8000	-2.4483
149.9464	-316.8000	-2.4477
150.0475	-316.8000	-2.4521
150.1474	-316.8000	-2.4487
150.2483	-316.8000	-2.4513
150.3502	-316.8000	-2.4457
150.4502	-316.8000	-2.4482
150.5501	-316.8000	-2.4476
150.6498	-316.8000	-2.4460
150.7498	-316.8000	-2.4475
150.8495	-316.8000	-2.4446
150.9496	-316.8000	-2.4442
151.0498	-316.8000	-2.4450
151.1500	-316.8000	-2.4394
151.2494	-316.8000	-2.4365
151.3507	-316.8000	-2.4412
151.4506	-316.8000	-2.4419
151.5506	-316.8000	-2.4403
151.6514	-316.8000	-2.4442
151.7516	-316.8000	-2.4414
151.8520	-316.8000	-2.4402
151.9521	-316.8000	-2.4382
152.0514	-316.8000	-2.4341
152.1516	-316.8000	-2.4367
152.2523	-316.8000	-2.4371
152.3516	-316.8000	-2.4357
152.4516	-316.8000	-2.4365
152.5516	-316.8000	-2.4347
152.6514	-316.8000	-2.4313
152.7517	-316.8000	-2.4304
152.8514	-316.8000	-2.4309
152.9515	-316.8000	-2.4309
153.0515	-316.8000	-2.4286
153.1515	-316.8000	-2.4294
153.2520	-316.8000	-2.4309
153.3518	-316.8000	-2.4299
153.4516	-316.8000	-2.4301
153.5524	-316.8000	-2.4300
153.6524	-316.8000	-2.4250
153.7525	-316.8000	-2.4275
153.8530	-316.8000	-2.4297
153.9529	-316.8000	-2.4250
154.0528	-316.8000	-2.4246
154.1524	-316.8000	-2.4196
154.2527	-316.8000	-2.4209
154.3531	-316.8000	-2.4225
154.4530	-316.8000	-2.4239
154.5542	-316.8000	-2.4221
154.6539	-316.8000	-2.4210
154.7536	-316.8000	-2.4232
154.8537	-316.8000	-2.4220
154.9535	-316.8000	-2.4200
155.0550	-316.8000	-2.4201
155.1552	-316.8000	-2.4156
155.2560	-316.8000	-2.4214
155.3555	-316.8000	-2.4143
155.4566	-316.8000	-2.4186
155.5572	-316.8000	-2.4145
155.6566	-316.8000	-2.4144
155.7573	-316.8000	-2.4159
155.8573	-316.8000	-2.4140
155.9570	-316.8000	-2.4152
156.0569	-316.8000	-2.4144
156.1569	-316.8000	-2.4110
156.2569	-316.8000	-2.4119
156.3572	-316.8000	-2.4116
156.4569	-316.8000	-2.4150
156.5570	-316.8000	-2.4124
156.6572	-316.8000	-2.4111
156.7583	-316.8000	-2.4122
156.8584	-316.8000	-2.4106
156.9591	-316.8000	-2.4063
157.0595	-316.8000	-2.4070
157.1597	-316.8000	-2.4101
157.2594	-316.8000	-2.4101
157.3594	-316.8000	-2.4082
157.4595	-316.8000	-2.4064
157.5604	-316.8000	-2.4044
157.6613	-316.8000	-2.4053
157.7607	-316.8000	-2.4026
157.8608	-316.8000	-2.4019
157.9606	-316.8000	-2.4004
158.0607	-316.8000	-2.4064
158.1615	-316.8000	-2.4035
158.2625	-316.8000	-2.4079
158.3631	-316.8000	-2.3997
158.4626	-316.8000	-2.4013
158.5628	-316.8000	-2.4005
158.6629	-316.8000	-2.4007
158.7631	-316.8000	-2.3988
158.8638	-316.8000	-2.3998
158.9635	-316.8000	-2.3955
159.0646	-316.8000	-2.3976
159.1657	-316.8000	-2.3959
159.2666	-316.8000	-2.3994
159.3675	-316.8000	-2.4016
159.4679	-316.8000	-2.4009
159.5678	-316.8000	-2.3970
159.6685	-316.8000	-2.3961
159.7686	-316.8000	-2.3972
159.8686	-316.8000	-2.3939
159.9693	-316.8000	-2.3963
160.0690	-316.8000	-2.3961
160.1684	-316.8000	-2.3925
160.2695	-316.8000	-2.3884
160.3695	-316.8000	-2.3959
160.4705	-316.8000	-2.4000
160.5723	-316.8000	-2.3925
160.6720	-316.8000	-2.3907
160.7715	-316.8000	-2.3936
160.8728	-316.8000	-2.3923
160.9726	-316.8000	-2.3912
161.0730	-316.8000	-2.3920
161.1731	-316.8000	-2.3917
161.2725	-316.8000	-2.3909
161.3726	-316.8000	-2.3866
161.4725	-316.8000	-2.3850
161.5731	-316.8000	-2.3872
161.6736	-316.8000	-2.3897
161.7752	-316.8000	-2.3881
161.8751	-316.8000	-2.3876
161.9752	-316.8000	-2.3885
162.0746	-316.8000	-2.3832
162.1745	-316.8000	-2.3948
162.2751	-316.8000	-2.3864
162.3752	-316.8000	-2.3857
162.4746	-316.8000	-2.3838
162.5751	-316.8000	-2.3849
162.6753	-316.8000	-2.3842
162.7752	-316.8000	-2.3804
162.8746	-316.8000	-2.3805
162.9745	-316.8000	-2.3784
163.0752	-316.8000	-2.3796
163.1748	-316.8000	-2.3803
163.2756	-316.8000	-2.3784
163.3757	-316.8000	-2.3782
163.4762	-316.8000	-2.3753
163.5762	-316.8000	-2.3765
163.6762	-316.8000	-2.3733
163.7761	-316.8000	-2.3764
163.8762	-316.8000	-2.3737
163.9759	-316.8000	-2.3740
164.0760	-316.8000	-2.3762
164.1764	-316.8000	-2.3744
164.2764	-316.8000	-2.3711
164.3775	-316.8000	-2.3740
164.4781	-316.8000	-2.3715
164.5779	-316.8000	-2.3732
164.6780	-316.8000	-2.3751
164.7776	-316.8000	-2.3713
164.8783	-316.8000	-2.3688
164.9790	-316.8000	-2.3738
165.0788	-316.8000	-2.3703
165.1793	-316.8000	-2.3695
165.2786	-316.8000	-2.3706
165.3793	-316.8000	-2.3700
165.4785	-316.8000	-2.3682
165.5796	-316.8000	-2.3688
165.6796	-316.8000	-2.3740
165.7798	-316.8000	-2.3712
165.8799	-316.8000	-2.3690
165.9807	-316.8000	-2.3682
166.0809	-316.8000	-2.3699
166.1807	-316.8000	-2.3681
166.2808	-316.8000	-2.3671
166.3825	-316.8000	-2.3661
166.4829	-316.8000	-2.3682
166.5839	-316.8000	-2.3641
166.6854	-316.8000	-2.3688
166.7846	-316.8000	-2.3642
166.8850	-316.8000	-2.3704
166.9849	-316.8000	-2.3655
167.0856	-316.8000	-2.3686
167.1860	-316.8000	-2.3669
167.2858	-316.8000	-2.3675
167.3856	-316.8000	-2.3680
167.4863	-316.8000	-2.3628
167.5863	-316.8000	-2.3666
167.6865	-316.8000	-2.3597
167.7866	-316.8000	-2.3618
167.8866	-316.8000	-2.3606
167.9872	-316.8000	-2.3601
168.0873	-316.8000	-2.3574
168.1866	-316.8000	-2.3606
168.2865	-316.8000	-2.3604
168.3872	-316.8000	-2.3566
168.4870	-316.8000	-2.3564
168.5871	-316.8000	-2.3595
168.6875	-316.8000	-2.3570
168.7876	-316.8000	-2.3598
168.8881	-316.8000	-2.3572
168.9876	-316.8000	-2.3585
169.0877	-316.8000	-2.3562
169.1884	-316.8000	-2.3565
169.2880	-316.8000	-2.3571
169.3878	-316.8000	-2.3566
169.4877	-316.8000	-2.3572
169.5884	-316.8000	-2.3530
169.6881	-316.8000	-2.3564
169.7887	-316.8000	-2.3539
169.8894	-316.8000	-2.3524
169.9890	-316.8000	-2.3522
170.0894	-316.8000	-2.3519
170.1893	-316.8000	-2.3500
170.2893	-316.8000	-2.3532
170.3903	-316.8000	-2.3531
170.4901	-316.8000	-2.3522
170.5899	-316.8000	-2.3473
170.6897	-316.8000	-2.3478
170.7896	-316.8000	-2.3484
170.8896	-316.8000	-2.3489
170.9899	-316.8000	-2.3500
171.0897	-316.8000	-2.3458
171.1903	-316.8000	-2.3472
171.2897	-316.8000	-2.3492
171.3896	-316.8000	-2.3489
171.4902	-316.8000	-2.3472
171.5910	-316.8000	-2.3465
171.6908	-316.8000	-2.3478
171.7908	-316.8000	-2.3475
171.8908	-316.8000	-2.3465
171.9907	-316.8000	-2.3443
172.0909	-316.8000	-2.3434
172.1906	-316.8000	-2.3457
172.2908	-316.8000	-2.3432
172.3907	-316.8000	-2.3458
172.4907	-316.8000	-2.3430
172.5908	-316.8000	-2.3425
172.6908	-316.8000	-2.3426
172.7908	-316.8000	-2.3380
172.8906	-316.8000	-2.3423
172.9909	-316.8000	-2.3425
173.0909	-316.8000	-2.3428
173.1907	-316.8000	-2.3441
173.2909	-316.8000	-2.3411
173.3906	-316.8000	-2.3381
173.4912	-316.8000	-2.3399
173.5907	-316.8000	-2.3399
173.6923	-316.8000	-2.3381
173.7935	-316.8000	-2.3371
173.8933	-316.8000	-2.3355
173.9927	-316.8000	-2.3380
174.0927	-316.8000	-2.3332
174.1930	-316.8000	-2.3375
174.2932	-316.8000	-2.3312
174.3944	-316.8000	-2.3357
174.4947	-316.8000	-2.3338
174.5948	-316.8000	-2.3338
174.6952	-316.8000	-2.3314
174.7957	-316.8000	-2.3328
174.8961	-316.8000	-2.3341
174.9964	-316.8000	-2.3317
175.0958	-316.8000	-2.3306
175.1967	-316.8000	-2.3309
175.2971	-316.8000	-2.3326
175.3975	-316.8000	-2.3277
175.4968	-316.8000	-2.3265
175.5966	-316.8000	-2.3309
175.6983	-316.8000	-2.3309
175.7982	-316.8000	-2.3294
175.8979	-316.8000	-2.3286
175.9979	-316.8000	-2.3310
176.0989	-316.8000	-2.3258
176.1996	-316.8000	-2.3303
176.2991	-316.8000	-2.3256
176.3991	-316.8000	-2.3318
176.4992	-316.8000	-2.3281
176.5995	-316.8000	-2.3269
176.6990	-316.8000	-2.3309
176.7995	-316.8000	-2.3271
176.8995	-316.8000	-2.3292
177.0006	-316.8000	-2.3280
177.1009	-316.8000	-2.3263
177.2009	-316.8000	-2.3275
177.3009	-316.8000	-2.3260
177.4009	-316.8000	-2.3275
177.5009	-316.8000	-2.3224
177.6009	-316.8000	-2.3258
177.7008	-316.8000	-2.3234
177.8008	-316.8000	-2.3271
177.9010	-316.8000	-2.3223
178.0019	-316.8000	-2.3258
178.1022	-316.8000	-2.3236
178.2023	-316.8000	-2.3207
178.3017	-316.8000	-2.3253
178.4027	-316.8000	-2.3222
178.5040	-316.8000	-2.3233
178.6040	-316.8000	-2.3217
178.7037	-316.8000	-2.3214
178.8037	-316.8000	-2.3217
178.9037	-316.8000	-2.3237
179.0039	-316.8000	-2.3251
179.1040	-316.8000	-2.3194
179.2040	-316.8000	-2.3224
179.3041	-316.8000	-2.3164
179.4038	-316.8000	-2.3218
179.5039	-316.8000	-2.3170
179.6037	-316.8000	-2.3177
179.7041	-316.8000	-2.3218
179.8056	-316.8000	-2.3174
179.9061	-316.8000	-2.3201
180.0061	-316.8000	-2.3204
180.1058	-316.8000	-2.3147
180.2067	-316.8000	-2.3172
180.3072	-316.8000	-2.3172
180.4074	-316.8000	-2.3198
180.5078	-316.8000	-2.3176
180.6095	-316.8000	-2.3206
180.7093	-316.8000	-2.3153
180.8090	-316.8000	-2.3190
180.9087	-316.8000	-2.3145
181.0094	-316.8000	-2.3200
181.1093	-316.8000	-2.3170
181.2091	-316.8000	-2.3146
181.3090	-316.8000	-2.3195
181.4092	-316.8000	-2.3144
181.5093	-316.8000	-2.3108
181.6098	-316.8000	-2.3134
181.7108	-316.8000	-2.3115
181.8109	-316.8000	-2.3118
181.9125	-316.8000	-2.3138
182.0118	-316.8000	-2.3109
182.1122	-316.8000	-2.3134
182.2126	-316.8000	-2.3121
182.3118	-316.8000	-2.3090
182.4118	-316.8000	-2.3116
182.5118	-316.8000	-2.3083
182.6119	-316.8000	-2.3082
182.7133	-316.8000	-2.3132
182.8127	-316.8000	-2.3076
182.9127	-316.8000	-2.3128
183.0130	-316.8000	-2.3080
183.1133	-316.8000	-2.3091
183.2133	-316.8000	-2.3056
183.3134	-316.8000	-2.3127
183.4129	-316.8000	-2.3059
183.5129	-316.8000	-2.3112
183.6131	-316.8000	-2.3064
183.7133	-316.8000	-2.3102
183.8127	-316.8000	-2.3092
183.9134	-316.8000	-2.3053
184.0130	-316.8000	-2.3078
184.1131	-316.8000	-2.3068
184.2131	-316.8000	-2.3078
184.3130	-316.8000	-2.3064
184.4133	-316.8000	-2.3037
184.5133	-316.8000	-2.3062
184.6140	-316.8000	-2.3055
184.7140	-316.8000	-2.3067
184.8139	-316.8000	-2.3050
184.9144	-316.8000	-2.3058
185.0156	-316.8000	-2.3024
185.1157	-316.8000	-2.3019
185.2166	-316.8000	-2.3058
185.3159	-316.8000	-2.3033
185.4162	-316.8000	-2.3039
185.5158	-316.8000	-2.3030
185.6169	-316.8000	-2.3048
185.7182	-316.8000	-2.3005
185.8189	-316.8000	-2.3001
185.9187	-316.8000	-2.3014
186.0192	-316.8000	-2.3049
186.1187	-316.8000	-2.3038
186.2187	-316.8000	-2.3001
186.3216	-316.8000	-2.3019
186.4214	-316.8000	-2.3022
186.5218	-316.8000	-2.3013
186.6222	-316.8000	-2.3049
186.7237	-316.8000	-2.3010
186.8244	-316.8000	-2.2971
186.9237	-316.8000	-2.3041
187.0249	-316.8000	-2.3028
187.1253	-316.8000	-2.3009
187.2258	-316.8000	-2.2967
187.3265	-316.8000	-2.2988
187.4264	-316.8000	-2.2973
187.5263	-316.8000	-2.2986
187.6258	-316.8000	-2.2949
187.7257	-316.8000	-2.2953
187.8263	-316.8000	-2.2989
187.9267	-316.8000	-2.2953
188.0269	-316.8000	-2.2953
188.1278	-316.8000	-2.2974
188.2287	-316.8000	-2.2973
188.3296	-316.8000	-2.2951
188.4292	-316.8000	-2.2975
188.5295	-316.8000	-2.2981
188.6296	-316.8000	-2.2933
188.7289	-316.8000	-2.2945
188.8298	-316.8000	-2.2931
188.9292	-316.8000	-2.2961
189.0295	-316.8000	-2.2949
189.1289	-316.8000	-2.2986
189.2297	-316.8000	-2.2936
189.3292	-316.8000	-2.2957
189.4296	-316.8000	-2.2916
189.5289	-316.8000	-2.2952
189.6297	-316.8000	-2.2956
189.7296	-316.8000	-2.2912
189.8300	-316.8000	-2.2945
189.9300	-316.8000	-2.2934
190.0302	-316.8000	-2.2905
190.1304	-316.8000	-2.2900
190.2307	-316.8000	-2.2920
190.3302	-316.8000	-2.2879
190.4303	-316.8000	-2.2915
190.5315	-316.8000	-2.2870
190.6322	-316.8000	-2.2912
190.7331	-316.8000	-2.2907
190.8335	-316.8000	-2.2869
190.9334	-316.8000	-2.2893
191.0331	-316.8000	-2.2911
191.1334	-316.8000	-2.2896
191.2330	-316.8000	-2.2887
191.3328	-316.8000	-2.2907
191.4341	-316.8000	-2.2866
191.5343	-316.8000	-2.2886
191.6347	-316.8000	-2.2873
191.7345	-316.8000	-2.2829
191.8342	-316.8000	-2.2894
191.9339	-316.8000	-2.2885
192.0340	-316.8000	-2.2854
192.1344	-316.8000	-2.2852
192.2346	-316.8000	-2.2862
192.3338	-316.8000	-2.2824
192.4351	-316.8000	-2.2875
192.5348	-316.8000	-2.2855
192.6351	-316.8000	-2.2839
192.7351	-316.8000	-2.2811
192.8354	-316.8000	-2.2817
192.9349	-316.8000	-2.2867
193.0356	-316.8000	-2.2838
193.1353	-316.8000	-2.2854
193.2350	-316.8000	-2.2856
193.3349	-316.8000	-2.2826
193.4357	-316.8000	-2.2864
193.5350	-316.8000	-2.2828
193.6354	-316.8000	-2.2861
193.7355	-316.8000	-2.2824
193.8349	-316.8000	-2.2847
193.9349	-316.8000	-2.2775
194.0364	-316.8000	-2.2832
194.1360	-316.8000	-2.2828
194.2359	-316.8000	-2.2795
194.3358	-316.8000	-2.2842
194.4360	-316.8000	-2.2829
194.5364	-316.8000	-2.2780
194.6361	-316.8000	-2.2802
194.7363	-316.8000	-2.2801
194.8367	-316.8000	-2.2825
194.9368	-316.8000	-2.2800
195.0369	-316.8000	-2.2776
195.1376	-316.8000	-2.2777
195.2385	-316.8000	-2.2791
195.3380	-316.8000	-2.2784
195.4382	-316.8000	-2.2752
195.5380	-316.8000	-2.2778
195.6387	-316.8000	-2.2746
195.7394	-316.8000	-2.2760
195.8390	-316.8000	-2.2770
195.9396	-316.8000	-2.2756
196.0389	-316.8000	-2.2755
196.1391	-316.8000	-2.2766
196.2392	-316.8000	-2.2728
196.3399	-316.8000	-2.2757
196.4399	-316.8000	-2.2744
196.5405	-316.8000	-2.2717
196.6406	-316.8000	-2.2748
196.7403	-316.8000	-2.2757
196.8398	-316.8000	-2.2729
196.9401	-316.8000	-2.2741
197.0401	-316.8000	-2.2736
197.1410	-316.8000	-2.2707
197.2408	-316.8000	-2.2714
197.3410	-316.8000	-2.2737
197.4412	-316.8000	-2.2720
197.5411	-316.8000	-2.2759
197.6411	-316.8000	-2.2715
197.7412	-316.8000	-2.2673
197.8419	-316.8000	-2.2706
197.9436	-316.8000	-2.2665
198.0441	-316.8000	-2.2721
198.1441	-316.8000	-2.2669
198.2446	-316.8000	-2.2705
198.3447	-316.8000	-2.2721
198.4446	-316.8000	-2.2713
198.5458	-316.8000	-2.2689
198.6466	-316.8000	-2.2709
198.7468	-316.8000	-2.2695
198.8478	-316.8000	-2.2703
198.9475	-316.8000	-2.2712
199.0477	-316.8000	-2.2710
199.1479	-316.8000	-2.2712
199.2484	-316.8000	-2.2694
199.3488	-316.8000	-2.2699
199.4484	-316.8000	-2.2721
199.5481	-316.8000	-2.2693
199.6483	-316.8000	-2.2683
199.7487	-316.8000	-2.2694
199.8481	-316.8000	-2.2646
199.9479	-316.8000	-2.2722
200.0479	-316.8000	-2.2649
200.1486	-316.8000	-2.2714
200.2486	-316.8000	-2.2681
200.3479	-316.8000	-2.2660
200.4488	-316.8000	-2.2685
200.5487	-316.8000	-2.2684
200.6480	-316.8000	-2.2640
200.7479	-316.8000	-2.2668
200.8486	-316.8000	-2.2649
200.9488	-316.8000	-2.2680
201.0502	-316.8000	-2.2658
201.1510	-316.8000	-2.2678
201.2511	-316.8000	-2.2642
201.3510	-316.8000	-2.2650
201.4510	-316.8000	-2.2692
201.5511	-316.8000	-2.2667
201.6517	-316.8000	-2.2638
201.7511	-316.8000	-2.2605
201.8510	-316.8000	-2.2663
201.9512	-316.8000	-2.2619
202.0512	-316.8000	-2.2617
202.1511	-316.8000	-2.2648
202.2511	-316.8000	-2.2593
202.3526	-316.8000	-2.2634
202.4524	-316.8000	-2.2622
202.5534	-316.8000	-2.2632
202.6533	-316.8000	-2.2624
202.7535	-316.8000	-2.2576
202.8538	-316.8000	-2.2634
202.9535	-316.8000	-2.2594
203.0536	-316.8000	-2.2628
203.1536	-316.8000	-2.2601
203.2532	-316.8000	-2.2589
203.3535	-316.8000	-2.2649
203.4539	-316.8000	-2.2580
203.5540	-316.8000	-2.2599
203.6548	-316.8000	-2.2558
203.7542	-316.8000	-2.2648
203.8548	-316.8000	-2.2582
203.9542	-316.8000	-2.2610
204.0547	-316.8000	-2.2588
204.1540	-316.8000	-2.2631
204.2548	-316.8000	-2.2565
204.3544	-316.8000	-2.2612
204.4541	-316.8000	-2.2588
204.5544	-316.8000	-2.2619
204.6556	-316.8000	-2.2555
204.7565	-316.8000	-2.2598
204.8562	-316.8000	-2.2577
204.9561	-316.8000	-2.2570
205.0578	-316.8000	-2.2560
205.1571	-316.8000	-2.2596
205.2585	-316.8000	-2.2536
205.3583	-316.8000	-2.2596
205.4586	-316.8000	-2.2555
205.5586	-316.8000	-2.2603
205.6580	-316.8000	-2.2554
205.7590	-316.8000	-2.2576
205.8599	-316.8000	-2.2581
205.9604	-316.8000	-2.2567
206.0618	-316.8000	-2.2572
206.1609	-316.8000	-2.2580
206.2612	-316.8000	-2.2542
206.3628	-316.8000	-2.2544
206.4620	-316.8000	-2.2561
206.5633	-316.8000	-2.2572
206.6636	-316.8000	-2.2553
206.7630	-316.8000	-2.2560
206.8630	-316.8000	-2.2530
206.9636	-316.8000	-2.2549
207.0633	-316.8000	-2.2541
207.1629	-316.8000	-2.2520
207.2640	-316.8000	-2.2559
207.3640	-316.8000	-2.2539
207.4645	-316.8000	-2.2520
207.5654	-316.8000	-2.2554
207.6665	-316.8000	-2.2526
207.7662	-316.8000	-2.2469
207.8663	-316.8000	-2.2563
207.9660	-316.8000	-2.2534
208.0672	-316.8000	-2.2557
208.1672	-316.8000	-2.2509
208.2671	-316.8000	-2.2493
208.3689	-316.8000	-2.2519
208.4689	-316.8000	-2.2515
208.5691	-316.8000	-2.2506
208.6693	-316.8000	-2.2513
208.7699	-316.8000	-2.2524
208.8694	-316.8000	-2.2526
208.9690	-316.8000	-2.2503
209.0701	-316.8000	-2.2528
209.1710	-316.8000	-2.2511
209.2711	-316.8000	-2.2491
209.3710	-316.8000	-2.2529
209.4712	-316.8000	-2.2464
209.5712	-316.8000	-2.2515
209.6711	-316.8000	-2.2494
209.7712	-316.8000	-2.2466
209.8712	-316.8000	-2.2510
209.9712	-316.8000	-2.2492
210.0712	-316.8000	-2.2485
210.1713	-316.8000	-2.2515
210.2713	-316.8000	-2.2484
210.3712	-316.8000	-2.2493
210.4711	-316.8000	-2.2445
210.5717	-316.8000	-2.2509
210.6710	-316.8000	-2.2461
210.7710	-316.8000	-2.2489
210.8711	-316.8000	-2.2425
210.9721	-316.8000	-2.2483
211.0733	-316.8000	-2.2466
211.1730	-316.8000	-2.2461
211.2731	-316.8000	-2.2482
211.3736	-316.8000	-2.2463
211.4736	-316.8000	-2.2469
211.5736	-316.8000	-2.2477
211.6736	-316.8000	-2.2466
211.7735	-316.8000	-2.2431
211.8742	-316.8000	-2.2430
211.9745	-316.8000	-2.2434
212.0753	-316.8000	-2.2430
212.1750	-316.8000	-2.2444
212.2752	-316.8000	-2.2417
212.3750	-316.8000	-2.2411
212.4754	-316.8000	-2.2433
212.5751	-316.8000	-2.2414
212.6750	-316.8000	-2.2425
212.7751	-316.8000	-2.2438
212.8750	-316.8000	-2.2394
212.9769	-316.8000	-2.2440
213.0763	-316.8000	-2.2414
213.1760	-316.8000	-2.2412
213.2760	-316.8000	-2.2400
213.3760	-316.8000	-2.2411
213.4773	-316.8000	-2.2413
213.5780	-316.8000	-2.2374
213.6783	-316.8000	-2.2382
213.7782	-316.8000	-2.2389
213.8781	-316.8000	-2.2438
213.9781	-316.8000	-2.2408
214.0781	-316.8000	-2.2393
214.1785	-316.8000	-2.2406
214.2791	-316.8000	-2.2410
214.3791	-316.8000	-2.2409
214.4791	-316.8000	-2.2425
214.5790	-316.8000	-2.2393
214.6792	-316.8000	-2.2425
214.7791	-316.8000	-2.2407
214.8800	-316.8000	-2.2424
214.9799	-316.8000	-2.2404
215.0790	-316.8000	-2.2400
215.1797	-316.8000	-2.2398
215.2796	-316.8000	-2.2365
215.3799	-316.8000	-2.2388
215.4794	-316.8000	-2.2405
215.5801	-316.8000	-2.2375
215.6803	-316.8000	-2.2403
215.7805	-316.8000	-2.2360
215.8803	-316.8000	-2.2378
215.9804	-316.8000	-2.2394
216.0802	-316.8000	-2.2363
216.1811	-316.8000	-2.2342
216.2813	-316.8000	-2.2364
216.3813	-316.8000	-2.2374
216.4812	-316.8000	-2.2386
216.5813	-316.8000	-2.2361
216.6812	-316.8000	-2.2370
216.7813	-316.8000	-2.2328
216.8813	-316.8000	-2.2361
216.9814	-316.8000	-2.2364
217.0813	-316.8000	-2.2330
217.1813	-316.8000	-2.2344
217.2814	-316.8000	-2.2343
217.3815	-316.8000	-2.2309
217.4813	-316.8000	-2.2366
217.5824	-316.8000	-2.2366
217.6840	-316.8000	-2.2327
217.7844	-316.8000	-2.2338
217.8849	-316.8000	-2.2346
217.9841	-316.8000	-2.2347
218.0842	-316.8000	-2.2329
218.1848	-316.8000	-2.2314
218.2842	-316.8000	-2.2331
218.3849	-316.8000	-2.2330
218.4846	-316.8000	-2.2335
218.5842	-316.8000	-2.2305
218.6860	-316.8000	-2.2332
218.7860	-316.8000	-2.2328
218.8858	-316.8000	-2.2315
218.9852	-316.8000	-2.2307
219.0868	-316.8000	-2.2337
219.1871	-316.8000	-2.2334
219.2872	-316.8000	-2.2301
219.3871	-316.8000	-2.2299
219.4880	-316.8000	-2.2324
219.5871	-316.8000	-2.2313
219.6872	-316.8000	-2.2324
219.7887	-316.8000	-2.2311
219.8891	-316.8000	-2.2287
219.9910	-316.8000	-2.2298
220.0902	-316.8000	-2.2285
220.1901	-316.8000	-2.2299
220.2905	-316.8000	-2.2299
220.3903	-316.8000	-2.2289
220.4902	-316.8000	-2.2250
220.5909	-316.8000	-2.2312
220.6910	-316.8000	-2.2268
220.7904	-316.8000	-2.2295
220.8912	-316.8000	-2.2306
220.9921	-316.8000	-2.2267
221.0923	-316.8000	-2.2333
221.1924	-316.8000	-2.2257
221.2922	-316.8000	-2.2275
221.3934	-316.8000	-2.2298
221.4936	-316.8000	-2.2282
221.5950	-316.8000	-2.2291
221.6942	-316.8000	-2.2251
221.7945	-316.8000	-2.2278
221.8942	-316.8000	-2.2285
221.9960	-316.8000	-2.2270
222.0957	-316.8000	-2.2268
222.1957	-316.8000	-2.2269
222.2961	-316.8000	-2.2262
222.3962	-316.8000	-2.2301
222.4963	-316.8000	-2.2255
222.5962	-316.8000	-2.2231
222.6966	-316.8000	-2.2215
222.7966	-316.8000	-2.2252
222.8967	-316.8000	-2.2239
222.9971	-316.8000	-2.2257
223.0976	-316.8000	-2.2237
223.1977	-316.8000	-2.2261
223.2976	-316.8000	-2.2250
223.3982	-316.8000	-2.2248
223.4990	-316.8000	-2.2247
223.5985	-316.8000	-2.2255
223.6984	-316.8000	-2.2232
223.7994	-316.8000	-2.2235
223.8993	-316.8000	-2.2236
223.9992	-316.8000	-2.2211
224.0999	-316.8000	-2.2226
224.1994	-316.8000	-2.2228
224.2996	-316.8000	-2.2217
224.3996	-316.8000	-2.2221
224.4992	-316.8000	-2.2226
224.5992	-316.8000	-2.2214
224.7002	-316.8000	-2.2208
224.8001	-316.8000	-2.2217
224.9017	-316.8000	-2.2209
225.0013	-316.8000	-2.2196
225.1014	-316.8000	-2.2189
225.2021	-316.8000	-2.2209
225.3027	-316.8000	-2.2204
225.4039	-316.8000	-2.2183
225.5032	-316.8000	-2.2201
225.6034	-316.8000	-2.2204
225.7042	-316.8000	-2.2202
225.8058	-316.8000	-2.2195
225.9065	-316.8000	-2.2210
226.0062	-316.8000	-2.2215
226.1062	-316.8000	-2.2191
226.2083	-316.8000	-2.2201
226.3083	-316.8000	-2.2175
226.4083	-316.8000	-2.2184
226.5084	-316.8000	-2.2181
226.6087	-316.8000	-2.2197
226.7083	-316.8000	-2.2172
226.8090	-316.8000	-2.2204
226.9083	-316.8000	-2.2204
227.0086	-316.8000	-2.2165
227.1092	-316.8000	-2.2195
227.2092	-316.8000	-2.2193
227.3102	-316.8000	-2.2173
227.4105	-316.8000	-2.2166
227.5102	-316.8000	-2.2181
227.6102	-316.8000	-2.2194
227.7103	-316.8000	-2.2178
227.8112	-316.8000	-2.2170
227.9114	-316.8000	-2.2218
228.0113	-316.8000	-2.2171
228.1112	-316.8000	-2.2216
228.2112	-316.8000	-2.2176
228.3113	-316.8000	-2.2177
228.4112	-316.8000	-2.2169
228.5115	-316.8000	-2.2152
228.6115	-316.8000	-2.2171
228.7113	-316.8000	-2.2174
228.8116	-316.8000	-2.2196
228.9119	-316.8000	-2.2135
229.0123	-316.8000	-2.2159
229.1131	-316.8000	-2.2121
229.2122	-316.8000	-2.2159
229.3122	-316.8000	-2.2151
229.4140	-316.8000	-2.2138
229.5133	-316.8000	-2.2177
229.6138	-316.8000	-2.2147
229.7139	-316.8000	-2.2104
229.8134	-316.8000	-2.2165
229.9133	-316.8000	-2.2139
230.0137	-316.8000	-2.2136
230.1139	-316.8000	-2.2136
230.2139	-316.8000	-2.2148
230.3141	-316.8000	-2.2138
230.4137	-316.8000	-2.2108
230.5135	-316.8000	-2.2151
230.6139	-316.8000	-2.2103
230.7135	-316.8000	-2.2142
230.8135	-316.8000	-2.2132
230.9138	-316.8000	-2.2120
231.0133	-316.8000	-2.2104
231.1138	-316.8000	-2.2130
231.2137	-316.8000	-2.2127
231.3138	-316.8000	-2.2130
231.4132	-316.8000	-2.2116
231.5141	-316.8000	-2.2129
231.6132	-316.8000	-2.2104
231.7139	-316.8000	-2.2155
231.8137	-316.8000	-2.2153
231.9134	-316.8000	-2.2156
232.0143	-316.8000	-2.2104
232.1156	-316.8000	-2.2126
232.2162	-316.8000	-2.2129
232.3169	-316.8000	-2.2116
232.4169	-316.8000	-2.2089
232.5164	-316.8000	-2.2071
232.6166	-316.8000	-2.2107
232.7174	-316.8000	-2.2102
232.8178	-316.8000	-2.2091
232.9173	-316.8000	-2.2097
233.0179	-316.8000	-2.2087
233.1187	-316.8000	-2.2133
233.2188	-316.8000	-2.2080
233.3187	-316.8000	-2.2122
233.4184	-316.8000	-2.2075
233.5194	-316.8000	-2.2062
233.6197	-316.8000	-2.2103
233.7195	-316.8000	-2.2094
233.8193	-316.8000	-2.2102
233.9200	-316.8000	-2.2089
234.0204	-316.8000	-2.2085
234.1208	-316.8000	-2.2103
234.2209	-316.8000	-2.2067
234.3207	-316.8000	-2.2059
234.4219	-316.8000	-2.2051
234.5212	-316.8000	-2.2077
234.6225	-316.8000	-2.2087
234.7223	-316.8000	-2.2067
234.8233	-316.8000	-2.2059
234.9243	-316.8000	-2.2092
235.0246	-316.8000	-2.2083
235.1251	-316.8000	-2.2090
235.2247	-316.8000	-2.2077
235.3243	-316.8000	-2.2095
235.4249	-316.8000	-2.2053
235.5248	-316.8000	-2.2056
235.6247	-316.8000	-2.2039
235.7252	-316.8000	-2.2062
235.8252	-316.8000	-2.2073
235.9254	-316.8000	-2.2015
236.0265	-316.8000	-2.2066
236.1265	-316.8000	-2.2065
236.2263	-316.8000	-2.2027
236.3267	-316.8000	-2.2035
236.4263	-316.8000	-2.2088
236.5265	-316.8000	-2.2062
236.6265	-316.8000	-2.2051
236.7272	-316.8000	-2.2033
236.8263	-316.8000	-2.2040
236.9264	-316.8000	-2.2068
237.0274	-316.8000	-2.2056
237.1282	-316.8000	-2.2015
237.2279	-316.8000	-2.2027
237.3276	-316.8000	-2.2041
237.4281	-316.8000	-2.2031
237.5274	-316.8000	-2.2052
237.6281	-316.8000	-2.2032
237.7283	-316.8000	-2.2012
237.8286	-316.8000	-2.2025
237.9286	-316.8000	-2.2039
238.0289	-316.8000	-2.2031
238.1291	-316.8000	-2.1993
238.2286	-316.8000	-2.2043
238.3283	-316.8000	-2.2014
238.4290	-316.8000	-2.2020
238.5288	-316.8000	-2.2041
238.6284	-316.8000	-2.2011
238.7286	-316.8000	-2.2016
238.8285	-316.8000	-2.1998
238.9293	-316.8000	-2.2021
239.0299	-316.8000	-2.2039
239.1305	-316.8000	-2.2036
239.2303	-316.8000	-2.2000
239.3318	-316.8000	-2.2007
239.4315	-316.8000	-2.2022
239.5322	-316.8000	-2.2024
239.6320	-316.8000	-2.2046
239.7332	-316.8000	-2.2019
239.8324	-316.8000	-2.2007
239.9324	-316.8000	-2.1984
240.0323	-316.8000	-2.2003
240.1343	-316.8000	-2.1996
240.2344	-316.8000	-2.2017
240.3360	-316.8000	-2.2005
240.4357	-316.8000	-2.2007
240.5357	-316.8000	-2.2005
240.6353	-316.8000	-2.2013
240.7354	-316.8000	-2.2020
240.8357	-316.8000	-2.2024
240.9358	-316.8000	-2.2036
241.0354	-316.8000	-2.2012
241.1353	-316.8000	-2.2003
241.2357	-316.8000	-2.2022
241.3357	-316.8000	-2.2024
241.4354	-316.8000	-2.2009
241.5355	-316.8000	-2.2016
241.6369	-316.8000	-2.2001
241.7371	-316.8000	-2.2003
241.8364	-316.8000	-2.2033
241.9371	-316.8000	-2.2007
242.0371	-316.8000	-2.1997
242.1368	-316.8000	-2.1979
242.2375	-316.8000	-2.1968
242.3378	-316.8000	-2.2002
242.4374	-316.8000	-2.1995
242.5374	-316.8000	-2.1967
242.6382	-316.8000	-2.1989
242.7383	-316.8000	-2.1982
242.8387	-316.8000	-2.1955
242.9388	-316.8000	-2.1961
243.0392	-316.8000	-2.1960
243.1392	-316.8000	-2.1979
243.2392	-316.8000	-2.1962
243.3389	-316.8000	-2.1967
243.4392	-316.8000	-2.1989
243.5390	-316.8000	-2.1974
243.6393	-316.8000	-2.1944
243.7393	-316.8000	-2.1978
243.8388	-316.8000	-2.1988
243.9386	-316.8000	-2.1967
244.0386	-316.8000	-2.1964
244.1387	-316.8000	-2.1957
244.2387	-316.8000	-2.1953
244.3394	-316.8000	-2.1949
244.4406	-316.8000	-2.1957
244.5406	-316.8000	-2.1948
244.6407	-316.8000	-2.1951
244.7409	-316.8000	-2.1951
244.8410	-316.8000	-2.1933
244.9408	-316.8000	-2.1931
245.0421	-316.8000	-2.1936
245.1423	-316.8000	-2.1933
245.2413	-316.8000	-2.1908
245.3416	-316.8000	-2.1965
245.4416	-316.8000	-2.1922
245.5416	-316.8000	-2.1927
245.6416	-316.8000	-2.1927
245.7419	-316.8000	-2.1917
245.8416	-316.8000	-2.1911
245.9415	-316.8000	-2.1897
246.0414	-316.8000	-2.1907
246.1416	-316.8000	-2.1934
246.2427	-316.8000	-2.1912
246.3424	-316.8000	-2.1905
246.4424	-316.8000	-2.1925
246.5425	-316.8000	-2.1927
246.6425	-316.8000	-2.1910
246.7432	-316.8000	-2.1899
246.8424	-316.8000	-2.1902
246.9429	-316.8000	-2.1897
247.0437	-316.8000	-2.1891
247.1435	-316.8000	-2.1917
247.2443	-316.8000	-2.1904
247.3434	-316.8000	-2.1919
247.4437	-316.8000	-2.1926
247.5436	-316.8000	-2.1901
247.6445	-316.8000	-2.1918
247.7451	-316.8000	-2.1939
247.8463	-316.8000	-2.1901
247.9454	-316.8000	-2.1923
248.0454	-316.8000	-2.1901
248.1463	-316.8000	-2.1896
248.2464	-316.8000	-2.1907
248.3477	-316.8000	-2.1903
248.4479	-316.8000	-2.1920
248.5484	-316.8000	-2.1894
248.6489	-316.8000	-2.1898
248.7493	-316.8000	-2.1910
248.8493	-316.8000	-2.1896
248.9493	-316.8000	-2.1883
249.0492	-316.8000	-2.1900
249.1485	-316.8000	-2.1888
249.2486	-316.8000	-2.1902
249.3493	-316.8000	-2.1878
249.4489	-316.8000	-2.1928
249.5485	-316.8000	-2.1893
249.6493	-316.8000	-2.1870
249.7491	-316.8000	-2.1899
249.8487	-316.8000	-2.1864
249.9491	-316.8000	-2.1848
250.0492	-316.8000	-2.1881
250.1484	-316.8000	-2.1891
250.2501	-316.8000	-2.1840
250.3496	-316.8000	-2.1866
250.4494	-316.8000	-2.1851
250.5495	-316.8000	-2.1866
250.6495	-316.8000	-2.1871
250.7496	-316.8000	-2.1876
250.8497	-316.8000	-2.1868
250.9499	-316.8000	-2.1871
251.0501	-316.8000	-2.1877
251.1504	-316.8000	-2.1878
251.2505	-316.8000	-2.1836
251.3504	-316.8000	-2.1866
251.4512	-316.8000	-2.1876
251.5524	-316.8000	-2.1856
251.6517	-316.8000	-2.1844
251.7516	-316.8000	-2.1850
251.8529	-316.8000	-2.1836
251.9525	-316.8000	-2.1815
252.0544	-316.8000	-2.1808
252.1536	-316.8000	-2.1838
252.2544	-316.8000	-2.1823
252.3553	-316.8000	-2.1809
252.4548	-316.8000	-2.1805
252.5544	-316.8000	-2.1829
252.6545	-316.8000	-2.1837
252.7551	-316.8000	-2.1810
252.8549	-316.8000	-2.1783
252.9544	-316.8000	-2.1788
253.0560	-316.8000	-2.1824
253.1555	-316.8000	-2.1843
253.2554	-316.8000	-2.1825
253.3561	-316.8000	-2.1821
253.4558	-316.8000	-2.1804
253.5559	-316.8000	-2.1804
253.6564	-316.8000	-2.1809
253.7565	-316.8000	-2.1823
253.8565	-316.8000	-2.1784
253.9567	-316.8000	-2.1780
254.0586	-316.8000	-2.1817
254.1575	-316.8000	-2.1798
254.2582	-316.8000	-2.1823
254.3585	-316.8000	-2.1808
254.4586	-316.8000	-2.1788
254.5587	-316.8000	-2.1791
254.6587	-316.8000	-2.1805
254.7595	-316.8000	-2.1808
254.8596	-316.8000	-2.1818
254.9607	-316.8000	-2.1803
255.0615	-316.8000	-2.1811
255.1615	-316.8000	-2.1816
255.2617	-316.8000	-2.1834
255.3617	-316.8000	-2.1803
255.4616	-316.8000	-2.1801
255.5625	-316.8000	-2.1800
255.6626	-316.8000	-2.1802
255.7628	-316.8000	-2.1807
255.8627	-316.8000	-2.1813
255.9631	-316.8000	-2.1783
256.0626	-316.8000	-2.1785
256.1625	-316.8000	-2.1794
256.2632	-316.8000	-2.1779
256.3636	-316.8000	-2.1827
256.4641	-316.8000	-2.1810
256.5641	-316.8000	-2.1806
256.6646	-316.8000	-2.1812
256.7663	-316.8000	-2.1782
256.8660	-316.8000	-2.1774
256.9666	-316.8000	-2.1794
257.0669	-316.8000	-2.1788
257.1671	-316.8000	-2.1809
257.2667	-316.8000	-2.1807
257.3676	-316.8000	-2.1803
257.4687	-316.8000	-2.1794
257.5690	-316.8000	-2.1837
257.6685	-316.8000	-2.1786
257.7686	-316.8000	-2.1828
257.8692	-316.8000	-2.1767
257.9690	-316.8000	-2.1815
258.0686	-316.8000	-2.1797
258.1686	-316.8000	-2.1784
258.2694	-316.8000	-2.1796
258.3695	-316.8000	-2.1821
258.4691	-316.8000	-2.1797
258.5688	-316.8000	-2.1786
258.6691	-316.8000	-2.1778
258.7698	-316.8000	-2.1803
258.8686	-316.8000	-2.1768
258.9688	-316.8000	-2.1809
259.0685	-316.8000	-2.1792
259.1686	-316.8000	-2.1771
259.2691	-316.8000	-2.1777
259.3692	-316.8000	-2.1769
259.4686	-316.8000	-2.1746
259.5705	-316.8000	-2.1738
259.6706	-316.8000	-2.1758
259.7716	-316.8000	-2.1780
259.8717	-316.8000	-2.1778
259.9731	-316.8000	-2.1777
260.0742	-316.8000	-2.1781
260.1754	-316.8000	-2.1750
260.2746	-316.8000	-2.1763
260.3746	-316.8000	-2.1767
260.4755	-316.8000	-2.1766
260.5758	-316.8000	-2.1751
260.6756	-316.8000	-2.1763
260.7772	-316.8000	-2.1763
260.8770	-316.8000	-2.1751
260.9775	-316.8000	-2.1767
261.0767	-316.8000	-2.1724
261.1769	-316.8000	-2.1757
261.2771	-316.8000	-2.1757
261.3767	-316.8000	-2.1733
261.4770	-316.8000	-2.1760
261.5767	-316.8000	-2.1727
261.6766	-316.8000	-2.1737
261.7777	-316.8000	-2.1756
261.8779	-316.8000	-2.1751
261.9776	-316.8000	-2.1756
262.0780	-316.8000	-2.1748
262.1784	-316.8000	-2.1736
262.2785	-316.8000	-2.1715
262.3776	-316.8000	-2.1736
262.4786	-316.8000	-2.1717
262.5795	-316.8000	-2.1711
262.6801	-316.8000	-2.1725
262.7801	-316.8000	-2.1736
262.8813	-316.8000	-2.1726
262.9812	-316.8000	-2.1745
263.0813	-316.8000	-2.1730
263.1820	-316.8000	-2.1723
263.2818	-316.8000	-2.1730
263.3818	-316.8000	-2.1745
263.4817	-316.8000	-2.1734
263.5817	-316.8000	-2.1718
263.6818	-316.8000	-2.1714
263.7818	-316.8000	-2.1722
263.8818	-316.8000	-2.1687
263.9821	-316.8000	-2.1686
264.0824	-316.8000	-2.1717
264.1818	-316.8000	-2.1704
264.2833	-316.8000	-2.1704
264.3839	-316.8000	-2.1709
264.4842	-316.8000	-2.1684
264.5843	-316.8000	-2.1697
264.6841	-316.8000	-2.1678
264.7842	-316.8000	-2.1686
264.8840	-316.8000	-2.1681
264.9837	-316.8000	-2.1656
265.0845	-316.8000	-2.1689
265.1836	-316.8000	-2.1679
265.2840	-316.8000	-2.1675
265.3847	-316.8000	-2.1657
265.4849	-316.8000	-2.1694
265.5848	-316.8000	-2.1666
265.6852	-316.8000	-2.1642
265.7853	-316.8000	-2.1656
265.8846	-316.8000	-2.1657
265.9865	-316.8000	-2.1669
266.0864	-316.8000	-2.1651
266.1859	-316.8000	-2.1689
266.2856	-316.8000	-2.1664
266.3867	-316.8000	-2.1658
266.4868	-316.8000	-2.1672
266.5869	-316.8000	-2.1653
266.6868	-316.8000	-2.1673
266.7870	-316.8000	-2.1672
266.8875	-316.8000	-2.1659
266.9879	-316.8000	-2.1649
267.0885	-316.8000	-2.1666
267.1876	-316.8000	-2.1675
267.2883	-316.8000	-2.1647
267.3888	-316.8000	-2.1665
267.4893	-316.8000	-2.1666
267.5888	-316.8000	-2.1661
267.6891	-316.8000	-2.1669
267.7886	-316.8000	-2.1671
267.8905	-316.8000	-2.1649
267.9906	-316.8000	-2.1664
268.0906	-316.8000	-2.1666
268.1906	-316.8000	-2.1660
268.2917	-316.8000	-2.1653
268.3917	-316.8000	-2.1653
268.4931	-316.8000	-2.1648
268.5937	-316.8000	-2.1638
268.6943	-316.8000	-2.1649
268.7936	-316.8000	-2.1658
268.8955	-316.8000	-2.1644
268.9953	-316.8000	-2.1656
269.0953	-316.8000	-2.1661
269.1946	-316.8000	-2.1626
269.2955	-316.8000	-2.1641
269.3947	-316.8000	-2.1647
269.4952	-316.8000	-2.1649
269.5946	-316.8000	-2.1644
269.6949	-316.8000	-2.1655
269.7946	-316.8000	-2.1628
269.8952	-316.8000	-2.1638
269.9956	-316.8000	-2.1632
270.0959	-316.8000	-2.1628
270.1965	-316.8000	-2.1636
270.2956	-316.8000	-2.1656
270.3957	-316.8000	-2.1621
270.4957	-316.8000	-2.1645
270.5965	-316.8000	-2.1628
270.6967	-316.8000	-2.1664
270.7971	-316.8000	-2.1624
270.8972	-316.8000	-2.1623
270.9966	-316.8000	-2.1637
271.0976	-316.8000	-2.1619
271.1971	-316.8000	-2.1643
271.2971	-316.8000	-2.1638
271.3968	-316.8000	-2.1614
271.4986	-316.8000	-2.1603
271.5985	-316.8000	-2.1626
271.6995	-316.8000	-2.1632
271.7997	-316.8000	-2.1620
271.9001	-316.8000	-2.1602
271.9997	-316.8000	-2.1632
272.0996	-316.8000	-2.1620
272.1998	-316.8000	-2.1609
272.3002	-316.8000	-2.1636
272.4007	-316.8000	-2.1604
272.5010	-316.8000	-2.1630
272.6025	-316.8000	-2.1593
272.7020	-316.8000	-2.1600
272.8020	-316.8000	-2.1608
272.9025	-316.8000	-2.1624
273.0019	-316.8000	-2.1592
273.1017	-316.8000	-2.1604
273.2018	-316.8000	-2.1580
273.3024	-316.8000	-2.1583
273.4017	-316.8000	-2.1574
273.5017	-316.8000	-2.1577
273.6020	-316.8000	-2.1586
273.7020	-316.8000	-2.1580
273.8017	-316.8000	-2.1592
273.9017	-316.8000	-2.1567
274.0018	-316.8000	-2.1591
274.1020	-316.8000	-2.1603
274.2036	-316.8000	-2.1604
274.3043	-316.8000	-2.1583
274.4041	-316.8000	-2.1609
274.5040	-316.8000	-2.1614
274.6037	-316.8000	-2.1590
274.7042	-316.8000	-2.1588
274.8040	-316.8000	-2.1594
274.9041	-316.8000	-2.1587
275.0036	-316.8000	-2.1593
275.1043	-316.8000	-2.1596
275.2044	-316.8000	-2.1598
275.3041	-316.8000	-2.1574
275.4037	-316.8000	-2.1604
275.5043	-316.8000	-2.1619
275.6041	-316.8000	-2.1591
275.7041	-316.8000	-2.1586
275.8042	-316.8000	-2.1592
275.9042	-316.8000	-2.1603
276.0043	-316.8000	-2.1581
276.1040	-316.8000	-2.1578
276.2039	-316.8000	-2.1568
276.3040	-316.8000	-2.1583
276.4044	-316.8000	-2.1595
276.5040	-316.8000	-2.1584
276.6042	-316.8000	-2.1547
276.7038	-316.8000	-2.1586
276.8045	-316.8000	-2.1577
276.9042	-316.8000	-2.1585
277.0043	-316.8000	-2.1547
277.1042	-316.8000	-2.1574
277.2048	-316.8000	-2.1544
277.3058	-316.8000	-2.1565
277.4057	-316.8000	-2.1542
277.5068	-316.8000	-2.1556
277.6074	-316.8000	-2.1552
277.7072	-316.8000	-2.1565
277.8076	-316.8000	-2.1549
277.9071	-316.8000	-2.1568
278.0076	-316.8000	-2.1576
278.1078	-316.8000	-2.1563
278.2078	-316.8000	-2.1571
278.3081	-316.8000	-2.1561
278.4089	-316.8000	-2.1538
278.5093	-316.8000	-2.1548
278.6087	-316.8000	-2.1557
278.7096	-316.8000	-2.1535
278.8092	-316.8000	-2.1538
278.9101	-316.8000	-2.1559
279.0101	-316.8000	-2.1532
279.1101	-316.8000	-2.1565
279.2097	-316.8000	-2.1553
279.3105	-316.8000	-2.1506
279.4101	-316.8000	-2.1547
279.5099	-316.8000	-2.1547
279.6098	-316.8000	-2.1527
279.7097	-316.8000	-2.1543
279.8101	-316.8000	-2.1531
279.9099	-316.8000	-2.1514
280.0098	-316.8000	-2.1527
280.1099	-316.8000	-2.1538
280.2118	-316.8000	-2.1532
280.3119	-316.8000	-2.1531
280.4130	-316.8000	-2.1522
280.5147	-316.8000	-2.1559
280.6155	-316.8000	-2.1546
280.7147	-316.8000	-2.1526
280.8162	-316.8000	-2.1508
280.9166	-316.8000	-2.1530
281.0161	-316.8000	-2.1519
281.1169	-316.8000	-2.1540
281.2168	-316.8000	-2.1521
281.3172	-316.8000	-2.1536
281.4172	-316.8000	-2.1539
281.5169	-316.8000	-2.1518
281.6176	-316.8000	-2.1521
281.7175	-316.8000	-2.1547
281.8170	-316.8000	-2.1522
281.9185	-316.8000	-2.1528
282.0181	-316.8000	-2.1474
282.1184	-316.8000	-2.1561
282.2189	-316.8000	-2.1538
282.3195	-316.8000	-2.1550
282.4193	-316.8000	-2.1521
282.5198	-316.8000	-2.1502
282.6214	-316.8000	-2.1523
282.7214	-316.8000	-2.1510
282.8215	-316.8000	-2.1534
282.9211	-316.8000	-2.1502
283.0218	-316.8000	-2.1517
283.1220	-316.8000	-2.1491
283.2220	-316.8000	-2.1520
283.3220	-316.8000	-2.1478
283.4221	-316.8000	-2.1503
283.5220	-316.8000	-2.1500
283.6220	-316.8000	-2.1530
283.7222	-316.8000	-2.1518
283.8220	-316.8000	-2.1492
283.9221	-316.8000	-2.1513
284.0220	-316.8000	-2.1477
284.1220	-316.8000	-2.1502
284.2220	-316.8000	-2.1490
284.3221	-316.8000	-2.1483
284.4219	-316.8000	-2.1496
284.5220	-316.8000	-2.1467
284.6221	-316.8000	-2.1498
284.7236	-316.8000	-2.1477
284.8229	-316.8000	-2.1468
284.9235	-316.8000	-2.1492
285.0230	-316.8000	-2.1471
285.1239	-316.8000	-2.1501
285.2244	-316.8000	-2.1468
285.3245	-316.8000	-2.1483
285.4244	-316.8000	-2.1501
285.5244	-316.8000	-2.1469
285.6245	-316.8000	-2.1495
285.7257	-316.8000	-2.1470
285.8267	-316.8000	-2.1510
285.9269	-316.8000	-2.1500
286.0274	-316.8000	-2.1465
286.1268	-316.8000	-2.1485
286.2273	-316.8000	-2.1489
286.3274	-316.8000	-2.1474
286.4268	-316.8000	-2.1492
286.5279	-316.8000	-2.1511
286.6287	-316.8000	-2.1469
286.7278	-316.8000	-2.1492
286.8291	-316.8000	-2.1479
286.9297	-316.8000	-2.1484
287.0305	-316.8000	-2.1484
287.1299	-316.8000	-2.1467
287.2299	-316.8000	-2.1495
287.3317	-316.8000	-2.1475
287.4311	-316.8000	-2.1465
287.5326	-316.8000	-2.1469
287.6321	-316.8000	-2.1467
287.7321	-316.8000	-2.1488
287.8319	-316.8000	-2.1455
287.9337	-316.8000	-2.1455
288.0331	-316.8000	-2.1451
288.1335	-316.8000	-2.1455
288.2345	-316.8000	-2.1447
288.3343	-316.8000	-2.1470
288.4352	-316.8000	-2.1453
288.5357	-316.8000	-2.1465
288.6348	-316.8000	-2.1468
288.7377	-316.8000	-2.1470
288.8364	-316.8000	-2.1469
288.9364	-316.8000	-2.1479
289.0358	-316.8000	-2.1463
289.1377	-316.8000	-2.1466
289.2375	-316.8000	-2.1492
289.3376	-316.8000	-2.1469
289.4368	-316.8000	-2.1465
289.5371	-316.8000	-2.1472
289.6371	-316.8000	-2.1473
289.7371	-316.8000	-2.1468
289.8372	-316.8000	-2.1453
289.9374	-316.8000	-2.1469
290.0376	-316.8000	-2.1478
290.1377	-316.8000	-2.1444
290.2381	-316.8000	-2.1469
290.3381	-316.8000	-2.1472
290.4389	-316.8000	-2.1451
290.5400	-316.8000	-2.1448
290.6409	-316.8000	-2.1436
290.7413	-316.8000	-2.1434
290.8411	-316.8000	-2.1455
290.9412	-316.8000	-2.1432
291.0413	-316.8000	-2.1458
291.1415	-316.8000	-2.1444
291.2412	-316.8000	-2.1433
291.3412	-316.8000	-2.1460
291.4410	-316.8000	-2.1435
291.5409	-316.8000	-2.1439
291.6413	-316.8000	-2.1460
291.7419	-316.8000	-2.1458
291.8421	-316.8000	-2.1447
291.9420	-316.8000	-2.1463
292.0421	-316.8000	-2.1465
292.1420	-316.8000	-2.1424
292.2422	-316.8000	-2.1454
292.3438	-316.8000	-2.1431
292.4439	-316.8000	-2.1432
292.5440	-316.8000	-2.1424
292.6440	-316.8000	-2.1449
292.7457	-316.8000	-2.1423
292.8450	-316.8000	-2.1428
292.9458	-316.8000	-2.1435
293.0451	-316.8000	-2.1426
293.1452	-316.8000	-2.1438
293.2449	-316.8000	-2.1419
293.3451	-316.8000	-2.1431
293.4457	-316.8000	-2.1401
293.5464	-316.8000	-2.1421
293.6459	-316.8000	-2.1416
293.7471	-316.8000	-2.1384
293.8478	-316.8000	-2.1409
293.9483	-316.8000	-2.1388
294.0480	-316.8000	-2.1413
294.1489	-316.8000	-2.1392
294.2492	-316.8000	-2.1396
294.3508	-316.8000	-2.1404
294.4505	-316.8000	-2.1401
294.5506	-316.8000	-2.1383
294.6499	-316.8000	-2.1412
294.7520	-316.8000	-2.1390
294.8522	-316.8000	-2.1415
294.9531	-316.8000	-2.1430
295.0529	-316.8000	-2.1408
295.1533	-316.8000	-2.1390
295.2530	-316.8000	-2.1403
295.3533	-316.8000	-2.1431
295.4550	-316.8000	-2.1401
295.5546	-316.8000	-2.1417
295.6545	-316.8000	-2.1420
295.7539	-316.8000	-2.1412
295.8542	-316.8000	-2.1392
295.9558	-316.8000	-2.1418
296.0551	-316.8000	-2.1390
296.1552	-316.8000	-2.1377
296.2559	-316.8000	-2.1378
296.3553	-316.8000	-2.1381
296.4550	-316.8000	-2.1389
296.5549	-316.8000	-2.1397
296.6549	-316.8000	-2.1365
296.7556	-316.8000	-2.1401
296.8558	-316.8000	-2.1388
296.9549	-316.8000	-2.1374
297.0559	-316.8000	-2.1349
297.1566	-316.8000	-2.1382
297.2565	-316.8000	-2.1382
297.3560	-316.8000	-2.1371
297.4564	-316.8000	-2.1365
297.5566	-316.8000	-2.1379
297.6563	-316.8000	-2.1367
297.7559	-316.8000	-2.1386
297.8560	-316.8000	-2.1393
297.9569	-316.8000	-2.1395
298.0566	-316.8000	-2.1382
298.1563	-316.8000	-2.1361
298.2570	-316.8000	-2.1390
298.3575	-316.8000	-2.1382
298.4575	-316.8000	-2.1385
298.5578	-316.8000	-2.1391
298.6578	-316.8000	-2.1358
298.7574	-316.8000	-2.1347
298.8570	-316.8000	-2.1374
298.9580	-316.8000	-2.1339
299.0591	-316.8000	-2.1348
299.1596	-316.8000	-2.1339
299.2599	-316.8000	-2.1345
299.3590	-316.8000	-2.1357
299.4604	-316.8000	-2.1359
299.5610	-316.8000	-2.1363
299.6620	-316.8000	-2.1345
299.7630	-316.8000	-2.1337
299.8636	-316.8000	-2.1358
299.9635	-316.8000	-2.1325
300.0640	-316.8000	-2.1335
300.1651	-316.8000	-2.1344
300.2652	-316.8000	-2.1376
300.3661	-316.8000	-2.1339
300.4662	-316.8000	-2.1362
300.5665	-316.8000	-2.1335
300.6671	-316.8000	-2.1364
300.7669	-316.8000	-2.1335
300.8675	-316.8000	-2.1350
300.9669	-316.8000	-2.1334
301.0673	-316.8000	-2.1358
301.1680	-316.8000	-2.1365
301.2684	-316.8000	-2.1343
301.3689	-316.8000	-2.1352
301.4709	-316.8000	-2.1350
301.5703	-316.8000	-2.1347
301.6700	-316.8000	-2.1326
301.7700	-316.8000	-2.1329
301.8718	-316.8000	-2.1326
301.9730	-316.8000	-2.1373
302.0730	-316.8000	-2.1345
302.1746	-316.8000	-2.1341
302.2744	-316.8000	-2.1337
302.3744	-316.8000	-2.1327
302.4740	-316.8000	-2.1344
302.5741	-316.8000	-2.1329
302.6743	-316.8000	-2.1319
302.7744	-316.8000	-2.1319
302.8740	-316.8000	-2.1312
302.9740	-316.8000	-2.1306
303.0749	-316.8000	-2.1296
303.1745	-316.8000	-2.1316
303.2750	-316.8000	-2.1320
303.3754	-316.8000	-2.1296
303.4752	-316.8000	-2.1327
303.5762	-316.8000	-2.1332
303.6760	-316.8000	-2.1320
303.7760	-316.8000	-2.1310
303.8765	-316.8000	-2.1334
303.9766	-316.8000	-2.1321
304.0760	-316.8000	-2.1330
304.1768	-316.8000	-2.1300
304.2770	-316.8000	-2.1296
304.3775	-316.8000	-2.1296
304.4770	-316.8000	-2.1300
304.5782	-316.8000	-2.1333
304.6781	-316.8000	-2.1319
304.7790	-316.8000	-2.1310
304.8792	-316.8000	-2.1306
304.9790	-316.8000	-2.1322
305.0790	-316.8000	-2.1290
305.1790	-316.8000	-2.1312
305.2799	-316.8000	-2.1328
305.3799	-316.8000	-2.1302
305.4795	-316.8000	-2.1306
305.5797	-316.8000	-2.1308
305.6794	-316.8000	-2.1313
305.7791	-316.8000	-2.1306
305.8799	-316.8000	-2.1285
305.9795	-316.8000	-2.1329
306.0798	-316.8000	-2.1303
306.1795	-316.8000	-2.1327
306.2796	-316.8000	-2.1289
306.3801	-316.8000	-2.1312
306.4809	-316.8000	-2.1290
306.5816	-316.8000	-2.1306
306.6820	-316.8000	-2.1324
306.7814	-316.8000	-2.1300
306.8816	-316.8000	-2.1302
306.9821	-316.8000	-2.1273
307.0823	-316.8000	-2.1288
307.1823	-316.8000	-2.1300
307.2824	-316.8000	-2.1278
307.3823	-316.8000	-2.1301
307.4822	-316.8000	-2.1316
307.5823	-316.8000	-2.1283
307.6822	-316.8000	-2.1293
307.7824	-316.8000	-2.1285
307.8826	-316.8000	-2.1290
307.9822	-316.8000	-2.1290
308.0840	-316.8000	-2.1258
308.1836	-316.8000	-2.1293
308.2831	-316.8000	-2.1310
308.3836	-316.8000	-2.1304
308.4850	-316.8000	-2.1259
308.5841	-316.8000	-2.1297
308.6848	-316.8000	-2.1315
308.7846	-316.8000	-2.1301
308.8860	-316.8000	-2.1284
308.9851	-316.8000	-2.1285
309.0870	-316.8000	-2.1297
309.1871	-316.8000	-2.1284
309.2871	-316.8000	-2.1313
309.3890	-316.8000	-2.1301
309.4894	-316.8000	-2.1283
309.5896	-316.8000	-2.1318
309.6892	-316.8000	-2.1291
309.7893	-316.8000	-2.1282
309.8911	-316.8000	-2.1301
309.9912	-316.8000	-2.1302
310.0911	-316.8000	-2.1292
310.1915	-316.8000	-2.1293
310.2922	-316.8000	-2.1312
310.3922	-316.8000	-2.1294
310.4921	-316.8000	-2.1310
310.5933	-316.8000	-2.1309
310.6944	-316.8000	-2.1288
310.7952	-316.8000	-2.1283
310.8962	-316.8000	-2.1294
310.9971	-316.8000	-2.1282
311.0987	-316.8000	-2.1294
311.1983	-316.8000	-2.1283
311.2991	-316.8000	-2.1272
311.3996	-316.8000	-2.1280
311.4997	-316.8000	-2.1281
311.6002	-316.8000	-2.1253
311.7004	-316.8000	-2.1282
311.8009	-316.8000	-2.1220
311.9001	-316.8000	-2.1243
312.0002	-316.8000	-2.1267
312.1001	-316.8000	-2.1264
312.2007	-316.8000	-2.1273
312.3002	-316.8000	-2.1256
312.4001	-316.8000	-2.1268
312.5018	-316.8000	-2.1254
312.6014	-316.8000	-2.1281
312.7013	-316.8000	-2.1248
312.8016	-316.8000	-2.1251
312.9020	-316.8000	-2.1230
313.0017	-316.8000	-2.1264
313.1022	-316.8000	-2.1226
313.2023	-316.8000	-2.1267
313.3024	-316.8000	-2.1269
313.4022	-316.8000	-2.1242
313.5023	-316.8000	-2.1234
313.6035	-316.8000	-2.1226
313.7036	-316.8000	-2.1236
313.8050	-316.8000	-2.1231
313.9048	-316.8000	-2.1237
314.0060	-316.8000	-2.1224
314.1069	-316.8000	-2.1243
314.2072	-316.8000	-2.1240
314.3081	-316.8000	-2.1225
314.4084	-316.8000	-2.1239
314.5082	-316.8000	-2.1246
314.6088	-316.8000	-2.1247
314.7086	-316.8000	-2.1230
314.8092	-316.8000	-2.1233
314.9095	-316.8000	-2.1219
315.0105	-316.8000	-2.1220
315.1108	-316.8000	-2.1221
315.2108	-316.8000	-2.1197
315.3108	-316.8000	-2.1194
315.4102	-316.8000	-2.1211
315.5106	-316.8000	-2.1234
315.6103	-316.8000	-2.1220
315.7106	-316.8000	-2.1217
315.8111	-316.8000	-2.1221
315.9111	-316.8000	-2.1195
316.0116	-316.8000	-2.1196
316.1111	-316.8000	-2.1202
316.2112	-316.8000	-2.1197
316.3112	-316.8000	-2.1208
316.4117	-316.8000	-2.1206
316.5130	-316.8000	-2.1231
316.6131	-316.8000	-2.1209
316.7122	-316.8000	-2.1211
316.8123	-316.8000	-2.1206
316.9121	-316.8000	-2.1226
317.0131	-316.8000	-2.1194
317.1140	-316.8000	-2.1203
317.2132	-316.8000	-2.1207
317.3141	-316.8000	-2.1233
317.4142	-316.8000	-2.1194
317.5146	-316.8000	-2.1222
317.6141	-316.8000	-2.1226
317.7145	-316.8000	-2.1198
317.8143	-316.8000	-2.1223
317.9141	-316.8000	-2.1217
318.0142	-316.8000	-2.1211
318.1146	-316.8000	-2.1224
318.2147	-316.8000	-2.1193
318.3141	-316.8000	-2.1218
318.4147	-316.8000	-2.1187
318.5152	-316.8000	-2.1198
318.6159	-316.8000	-2.1194
318.7171	-316.8000	-2.1218
318.8161	-316.8000	-2.1188
318.9168	-316.8000	-2.1173
319.0165	-316.8000	-2.1177
319.1165	-316.8000	-2.1173
319.2169	-316.8000	-2.1174
319.3166	-316.8000	-2.1188
319.4180	-316.8000	-2.1159
319.5191	-316.8000	-2.1175
319.6185	-316.8000	-2.1199
319.7183	-316.8000	-2.1164
319.8201	-316.8000	-2.1168
319.9200	-316.8000	-2.1190
320.0196	-316.8000	-2.1156
320.1197	-316.8000	-2.1190
320.2208	-316.8000	-2.1160
320.3206	-316.8000	-2.1177
320.4206	-316.8000	-2.1174
320.5205	-316.8000	-2.1154
320.6202	-316.8000	-2.1167
320.7203	-316.8000	-2.1174
320.8213	-316.8000	-2.1189
320.9215	-316.8000	-2.1176
321.0222	-316.8000	-2.1174
321.1232	-316.8000	-2.1179
321.2235	-316.8000	-2.1168
321.3234	-316.8000	-2.1156
321.4242	-316.8000	-2.1166
321.5247	-316.8000	-2.1150
321.6249	-316.8000	-2.1175
321.7248	-316.8000	-2.1158
321.8248	-316.8000	-2.1169
321.9248	-316.8000	-2.1159
322.0258	-316.8000	-2.1164
322.1263	-316.8000	-2.1170
322.2273	-316.8000	-2.1202
322.3274	-316.8000	-2.1165
322.4273	-316.8000	-2.1171
322.5279	-316.8000	-2.1171
322.6277	-316.8000	-2.1191
322.7273	-316.8000	-2.1162
322.8282	-316.8000	-2.1190
322.9290	-316.8000	-2.1188
323.0288	-316.8000	-2.1167
323.1294	-316.8000	-2.1149
323.2297	-316.8000	-2.1161
323.3292	-316.8000	-2.1162
323.4293	-316.8000	-2.1171
323.5302	-316.8000	-2.1153
323.6301	-316.8000	-2.1152
323.7313	-316.8000	-2.1179
323.8314	-316.8000	-2.1135
323.9316	-316.8000	-2.1167
324.0326	-316.8000	-2.1156
324.1325	-316.8000	-2.1180
324.2324	-316.8000	-2.1143
324.3325	-316.8000	-2.1169
324.4331	-316.8000	-2.1143
324.5330	-316.8000	-2.1183
324.6328	-316.8000	-2.1153
324.7325	-316.8000	-2.1161
324.8334	-316.8000	-2.1158
324.9332	-316.8000	-2.1172
325.0336	-316.8000	-2.1161
325.1333	-316.8000	-2.1154
325.2351	-316.8000	-2.1160
325.3345	-316.8000	-2.1181
325.4342	-316.8000	-2.1146
325.5348	-316.8000	-2.1177
325.6346	-316.8000	-2.1181
325.7349	-316.8000	-2.1158
325.8342	-316.8000	-2.1135
325.9343	-316.8000	-2.1146
326.0346	-316.8000	-2.1149
326.1346	-316.8000	-2.1128
326.2362	-316.8000	-2.1131
326.3352	-316.8000	-2.1132
326.4358	-316.8000	-2.1163
326.5360	-316.8000	-2.1131
326.6372	-316.8000	-2.1138
326.7362	-316.8000	-2.1150
326.8367	-316.8000	-2.1131
326.9365	-316.8000	-2.1162
327.0382	-316.8000	-2.1133
327.1381	-316.8000	-2.1150
327.2377	-316.8000	-2.1149
327.3378	-316.8000	-2.1142
327.4378	-316.8000	-2.1137
327.5377	-316.8000	-2.1114
327.6375	-316.8000	-2.1160
327.7374	-316.8000	-2.1134
327.8378	-316.8000	-2.1148
327.9378	-316.8000	-2.1136
328.0376	-316.8000	-2.1172
328.1381	-316.8000	-2.1135
328.2382	-316.8000	-2.1127
328.3383	-316.8000	-2.1156
328.4388	-316.8000	-2.1159
328.5383	-316.8000	-2.1126
328.6392	-316.8000	-2.1139
328.7402	-316.8000	-2.1147
328.8401	-316.8000	-2.1177
328.9396	-316.8000	-2.1163
329.0397	-316.8000	-2.1149
329.1398	-316.8000	-2.1146
329.2398	-316.8000	-2.1173
329.3394	-316.8000	-2.1107
329.4398	-316.8000	-2.1145
329.5397	-316.8000	-2.1145
329.6401	-316.8000	-2.1151
329.7402	-316.8000	-2.1123
329.8407	-316.8000	-2.1156
329.9420	-316.8000	-2.1163
330.0418	-316.8000	-2.1155
330.1422	-316.8000	-2.1160
330.2432	-316.8000	-2.1157
330.3434	-316.8000	-2.1129
330.4441	-316.8000	-2.1144
330.5433	-316.8000	-2.1144
330.6453	-316.8000	-2.1150
330.7460	-316.8000	-2.1131
330.8462	-316.8000	-2.1094
330.9453	-316.8000	-2.1112
331.0455	-316.8000	-2.1128
331.1471	-316.8000	-2.1143
331.2469	-316.8000	-2.1112
331.3466	-316.8000	-2.1113
331.4463	-316.8000	-2.1119
331.5466	-316.8000	-2.1131
331.6481	-316.8000	-2.1101
331.7493	-316.8000	-2.1124
331.8494	-316.8000	-2.1119
331.9493	-316.8000	-2.1107
332.0503	-316.8000	-2.1101
332.1510	-316.8000	-2.1114
332.2503	-316.8000	-2.1100
332.3511	-316.8000	-2.1086
332.4523	-316.8000	-2.1105
332.5525	-316.8000	-2.1117
332.6538	-316.8000	-2.1101
332.7534	-316.8000	-2.1107
332.8550	-316.8000	-2.1120
332.9553	-316.8000	-2.1111
333.0543	-316.8000	-2.1114
333.1550	-316.8000	-2.1108
333.2546	-316.8000	-2.1086
333.3562	-316.8000	-2.1090
333.4572	-316.8000	-2.1068
333.5566	-316.8000	-2.1101
333.6582	-316.8000	-2.1069
333.7592	-316.8000	-2.1109
333.8589	-316.8000	-2.1095
333.9590	-316.8000	-2.1104
334.0583	-316.8000	-2.1068
334.1589	-316.8000	-2.1118
334.2598	-316.8000	-2.1102
334.3600	-316.8000	-2.1087
334.4594	-316.8000	-2.1097
334.5597	-316.8000	-2.1080
334.6603	-316.8000	-2.1097
334.7601	-316.8000	-2.1059
334.8594	-316.8000	-2.1076
334.9602	-316.8000	-2.1074
335.0603	-316.8000	-2.1074
335.1599	-316.8000	-2.1095
335.2593	-316.8000	-2.1086
335.3598	-316.8000	-2.1088
335.4611	-316.8000	-2.1090
335.5623	-316.8000	-2.1089
335.6615	-316.8000	-2.1080
335.7616	-316.8000	-2.1106
335.8621	-316.8000	-2.1095
335.9617	-316.8000	-2.1080
336.0623	-316.8000	-2.1086
336.1626	-316.8000	-2.1099
336.2631	-316.8000	-2.1085
336.3636	-316.8000	-2.1090
336.4644	-316.8000	-2.1078
336.5644	-316.8000	-2.1086
336.6650	-316.8000	-2.1082
336.7650	-316.8000	-2.1098
336.8647	-316.8000	-2.1072
336.9648	-316.8000	-2.1118
337.0647	-316.8000	-2.1068
337.1654	-316.8000	-2.1097
337.2673	-316.8000	-2.1098
337.3673	-316.8000	-2.1081
337.4673	-316.8000	-2.1095
337.5674	-316.8000	-2.1124
337.6675	-316.8000	-2.1131
337.7681	-316.8000	-2.1068
337.8676	-316.8000	-2.1106
337.9678	-316.8000	-2.1079
338.0683	-316.8000	-2.1103
338.1683	-316.8000	-2.1073
338.2690	-316.8000	-2.1070
338.3689	-316.8000	-2.1118
338.4688	-316.8000	-2.1062
338.5690	-316.8000	-2.1094
338.6689	-316.8000	-2.1068
338.7689	-316.8000	-2.1088
338.8691	-316.8000	-2.1086
338.9691	-316.8000	-2.1083
339.0689	-316.8000	-2.1077
339.1695	-316.8000	-2.1052
339.2702	-316.8000	-2.1077
339.3701	-316.8000	-2.1066
339.4695	-316.8000	-2.1044
339.5709	-316.8000	-2.1067
339.6704	-316.8000	-2.1055
339.7704	-316.8000	-2.1077
339.8711	-316.8000	-2.1033
339.9714	-316.8000	-2.1077
340.0720	-316.8000	-2.1075
340.1714	-316.8000	-2.1058
340.2714	-316.8000	-2.1084
340.3718	-316.8000	-2.1036
340.4724	-316.8000	-2.1054
340.5724	-316.8000	-2.1048
340.6728	-316.8000	-2.1076
340.7725	-316.8000	-2.1053
340.8733	-316.8000	-2.1077
340.9725	-316.8000	-2.1056
341.0753	-316.8000	-2.1047
341.1734	-316.8000	-2.1081
341.2737	-316.8000	-2.1050
341.3734	-316.8000	-2.1058
341.4752	-316.8000	-2.1059
341.5751	-316.8000	-2.1046
341.6753	-316.8000	-2.1057
341.7746	-316.8000	-2.1027
341.8750	-316.8000	-2.1035
341.9745	-316.8000	-2.1056
342.0746	-316.8000	-2.1040
342.1750	-316.8000	-2.1051
342.2746	-316.8000	-2.1039
342.3750	-316.8000	-2.1061
342.4763	-316.8000	-2.1023
342.5763	-316.8000	-2.1057
342.6770	-316.8000	-2.1021
342.7772	-316.8000	-2.1050
342.8770	-316.8000	-2.1036
342.9772	-316.8000	-2.1022
343.0771	-316.8000	-2.1049
343.1770	-316.8000	-2.1023
343.2770	-316.8000	-2.1023
343.3772	-316.8000	-2.1050
343.4776	-316.8000	-2.1044
343.5776	-316.8000	-2.1031
343.6779	-316.8000	-2.1023
343.7779	-316.8000	-2.1040
343.8781	-316.8000	-2.1025
343.9781	-316.8000	-2.1027
344.0778	-316.8000	-2.1025
344.1778	-316.8000	-2.1041
344.2775	-316.8000	-2.1020
344.3778	-316.8000	-2.1044
344.4776	-316.8000	-2.1025
344.5793	-316.8000	-2.1015
344.6783	-316.8000	-2.1007
344.7779	-316.8000	-2.1007
344.8793	-316.8000	-2.0982
344.9794	-316.8000	-2.1008
345.0793	-316.8000	-2.0999
345.1792	-316.8000	-2.1035
345.2788	-316.8000	-2.1005
345.3789	-316.8000	-2.1026
345.4791	-316.8000	-2.1003
345.5786	-316.8000	-2.1052
345.6804	-316.8000	-2.1014
345.7795	-316.8000	-2.1027
345.8796	-316.8000	-2.1011
345.9802	-316.8000	-2.1011
346.0799	-316.8000	-2.1006
346.1797	-316.8000	-2.0997
346.2804	-316.8000	-2.1029
346.3804	-316.8000	-2.1002
