4/12/2023 4:53:29 pm
Time(s)	Displacement(mm)	Force(N)
0.0000	-266.9520	1.2120
0.1366	-267.4700	1.2161
0.2377	-268.1190	1.2105
0.3381	-268.8030	1.1988
0.4379	-269.4860	1.1948
0.5383	-270.1360	1.1831
0.6388	-270.8200	1.1762
0.7403	-271.5030	1.1681
0.8405	-272.1530	1.1686
0.9398	-272.8020	1.1655
1.0417	-273.4880	1.1599
1.1434	-274.1710	1.1680
1.2433	-274.8210	1.1712
1.3436	-275.5050	1.1747
1.4435	-276.1540	1.1695
1.5436	-276.8400	1.1754
1.6455	-277.5230	1.1764
1.7449	-278.1730	1.1831
1.8456	-278.8570	1.1786
1.9453	-279.5060	1.1816
2.0452	-280.1900	1.1894
2.1464	-280.8390	1.1948
2.2466	-281.5230	1.1963
2.3475	-282.2060	1.1983
2.4475	-282.8560	1.1987
2.5477	-283.5390	1.2063
2.6488	-284.2230	1.2143
2.7495	-284.8720	1.2135
2.8492	-285.5560	1.2242
2.9490	-286.2060	1.2286
3.0503	-286.8890	1.2301
3.1501	-287.5380	1.2362
3.2511	-288.2250	1.2408
3.3511	-288.8740	1.2510
3.4509	-289.5580	1.2550
3.5520	-290.2410	1.2616
3.6519	-290.8910	1.2609
3.7524	-291.5740	1.2733
3.8520	-292.2240	1.2763
3.9519	-292.9070	1.2794
4.0533	-293.5560	1.2863
4.1536	-294.2400	1.2905
4.2529	-294.8890	1.2972
4.3529	-295.5730	1.2973
4.4529	-296.2570	1.3015
4.5546	-296.9060	1.3045
4.6539	-297.5890	1.3014
4.7542	-298.2390	1.2970
4.8545	-298.9230	1.2934
4.9537	-299.5720	1.2846
5.0549	-300.2560	1.2727
5.1555	-300.9390	1.2626
5.2550	-301.5890	1.2448
5.3551	-302.2720	1.2192
5.4551	-302.9220	1.1816
5.5555	-303.6050	1.1384
5.6567	-304.2550	1.0908
5.7570	-304.9390	1.0253
5.8568	-305.5880	0.9450
5.9588	-306.2710	0.8491
6.0603	-306.9550	0.7327
6.1609	-307.6380	0.5871
6.2616	-308.2880	0.4177
6.3609	-308.9720	0.2113
6.4619	-309.6210	-0.0295
6.5629	-310.3050	-0.3142
6.6629	-310.9880	-0.6536
6.7638	-311.6370	-1.0507
6.8641	-312.3210	-1.5212
6.9657	-312.9710	-2.0697
7.0655	-313.6540	-2.7010
7.1652	-314.3030	-3.4208
7.2651	-314.9900	-4.2392
7.3652	-315.6390	-5.1580
7.4656	-316.3230	-6.2290
7.5653	-316.8060	-6.9406
7.6656	-316.8010	-6.8622
7.7657	-316.8010	-6.8106
7.8652	-316.8010	-6.7795
7.9667	-316.8010	-6.7531
8.0661	-316.8000	-6.7320
8.1659	-316.8000	-6.7185
8.2668	-316.8000	-6.7052
8.3677	-316.8000	-6.6930
8.4677	-316.8000	-6.6799
8.5686	-316.8000	-6.6749
8.6691	-316.8000	-6.6692
8.7690	-316.8000	-6.6576
8.8696	-316.8000	-6.6539
8.9697	-316.8000	-6.6475
9.0706	-316.8000	-6.6428
9.1705	-316.8000	-6.6360
9.2705	-316.8000	-6.6326
9.3710	-316.8000	-6.6261
9.4707	-316.8000	-6.6214
9.5701	-316.8000	-6.6173
9.6702	-316.8000	-6.6142
9.7704	-316.8000	-6.6074
9.8717	-316.8000	-6.6047
9.9724	-316.8000	-6.6010
10.0735	-316.8000	-6.5967
10.1733	-316.8000	-6.6017
10.2728	-316.8000	-6.5941
10.3735	-316.8000	-6.5912
10.4747	-316.8000	-6.5894
10.5758	-316.8000	-6.5844
10.6749	-316.8000	-6.5797
10.7749	-316.8000	-6.5799
10.8761	-316.8000	-6.5812
10.9769	-316.8000	-6.5776
11.0777	-316.8000	-6.5731
11.1784	-316.8000	-6.5711
11.2785	-316.8000	-6.5662
11.3783	-316.8000	-6.5638
11.4786	-316.8000	-6.5629
11.5787	-316.8000	-6.5618
11.6780	-316.8000	-6.5614
11.7784	-316.8000	-6.5573
11.8779	-316.8000	-6.5560
11.9780	-316.8000	-6.5557
12.0784	-316.8000	-6.5503
12.1790	-316.8000	-6.5482
12.2794	-316.8000	-6.5506
12.3791	-316.8000	-6.5474
12.4789	-316.8000	-6.5445
12.5791	-316.8000	-6.5442
12.6790	-316.8000	-6.5440
12.7790	-316.8000	-6.5398
12.8798	-316.8000	-6.5388
12.9797	-316.8000	-6.5395
13.0797	-316.8000	-6.5360
13.1798	-316.8000	-6.5381
13.2805	-316.8000	-6.5351
13.3810	-316.8000	-6.5299
13.4810	-316.8000	-6.5307
13.5818	-316.8000	-6.5306
13.6817	-316.8000	-6.5296
13.7819	-316.8000	-6.5278
13.8829	-316.8000	-6.5250
13.9838	-316.8000	-6.5258
14.0829	-316.8000	-6.5255
14.1839	-316.8000	-6.5253
14.2848	-316.8000	-6.5219
14.3849	-316.8000	-6.5218
14.4859	-316.8000	-6.5237
14.5862	-316.8000	-6.5204
14.6862	-316.8000	-6.5157
14.7863	-316.8000	-6.5189
14.8860	-316.8000	-6.5142
14.9878	-316.8000	-6.5158
15.0873	-316.8000	-6.5152
15.1877	-316.8000	-6.5159
15.2870	-316.8000	-6.5159
15.3879	-316.8000	-6.5148
15.4886	-316.8000	-6.5133
15.5883	-316.8000	-6.5130
15.6882	-316.8000	-6.5124
15.7895	-316.8000	-6.5079
15.8908	-316.8000	-6.5086
15.9899	-316.8000	-6.5099
16.0905	-316.8000	-6.5034
16.1918	-316.8000	-6.5066
16.2916	-316.8000	-6.5046
16.3909	-316.8000	-6.5014
16.4924	-316.8000	-6.5043
16.5926	-316.8000	-6.5037
16.6926	-316.8000	-6.5023
16.7927	-316.8000	-6.5037
16.8928	-316.8000	-6.4973
16.9924	-316.8000	-6.4956
17.0919	-316.8000	-6.4974
17.1922	-316.8000	-6.5008
17.2920	-316.8000	-6.4930
17.3920	-316.8000	-6.4937
17.4937	-316.8000	-6.4927
17.5934	-316.8000	-6.4930
17.6932	-316.8000	-6.4850
17.7929	-316.8000	-6.4904
17.8936	-316.8000	-6.4889
17.9929	-316.8000	-6.4838
18.0936	-316.8000	-6.4854
18.1941	-316.8000	-6.4863
18.2958	-316.8000	-6.4859
18.3974	-316.8000	-6.4885
18.4972	-316.8000	-6.4823
18.5971	-316.8000	-6.4863
18.6989	-316.8000	-6.4839
18.7991	-316.8000	-6.4826
18.8991	-316.8000	-6.4796
18.9997	-316.8000	-6.4832
19.1009	-316.8000	-6.4814
19.2021	-316.8000	-6.4795
19.3025	-316.8000	-6.4781
19.4027	-316.8000	-6.4786
19.5027	-316.8000	-6.4770
19.6025	-316.8000	-6.4783
19.7037	-316.8000	-6.4753
19.8046	-316.8000	-6.4733
19.9048	-316.8000	-6.4727
20.0044	-316.8000	-6.4727
20.1044	-316.8000	-6.4694
20.2046	-316.8000	-6.4712
20.3040	-316.8000	-6.4702
20.4042	-316.8000	-6.4688
20.5044	-316.8000	-6.4685
20.6050	-316.8000	-6.4688
20.7055	-316.8000	-6.4679
20.8050	-316.8000	-6.4665
20.9056	-316.8000	-6.4643
21.0057	-316.8000	-6.4690
21.1055	-316.8000	-6.4683
21.2067	-316.8000	-6.4658
21.3062	-316.8000	-6.4698
21.4062	-316.8000	-6.4699
21.5062	-316.8000	-6.4686
21.6078	-316.8000	-6.4656
21.7076	-316.8000	-6.4655
21.8082	-316.8000	-6.4650
21.9086	-316.8000	-6.4645
22.0085	-316.8000	-6.4628
22.1081	-316.8000	-6.4652
22.2086	-316.8000	-6.4620
22.3093	-316.8000	-6.4603
22.4092	-316.8000	-6.4605
22.5103	-316.8000	-6.4622
22.6109	-316.8000	-6.4599
22.7103	-316.8000	-6.4594
22.8111	-316.8000	-6.4617
22.9113	-316.8000	-6.4596
23.0117	-316.8000	-6.4583
23.1114	-316.8000	-6.4587
23.2114	-316.8000	-6.4570
23.3113	-316.8000	-6.4557
23.4111	-316.8000	-6.4538
23.5115	-316.8000	-6.4544
23.6110	-316.8000	-6.4539
23.7118	-316.8000	-6.4553
23.8110	-316.8000	-6.4589
23.9118	-316.8000	-6.4525
24.0116	-316.8000	-6.4506
24.1118	-316.8000	-6.4528
24.2111	-316.8000	-6.4507
24.3115	-316.8000	-6.4484
24.4112	-316.8000	-6.4490
24.5119	-316.8000	-6.4489
24.6110	-316.8000	-6.4473
24.7109	-316.8000	-6.4534
24.8113	-316.8000	-6.4472
24.9110	-316.8000	-6.4461
25.0118	-316.8000	-6.4464
25.1118	-316.8000	-6.4469
25.2111	-316.8000	-6.4475
25.3118	-316.8000	-6.4478
25.4117	-316.8000	-6.4470
25.5111	-316.8000	-6.4464
25.6135	-316.8000	-6.4467
25.7129	-316.8000	-6.4460
25.8120	-316.8000	-6.4425
25.9127	-316.8000	-6.4436
26.0128	-316.8000	-6.4428
26.1131	-316.8000	-6.4426
26.2146	-316.8000	-6.4415
26.3147	-316.8000	-6.4407
26.4151	-316.8000	-6.4406
26.5156	-316.8000	-6.4426
26.6168	-316.8000	-6.4435
26.7163	-316.8000	-6.4420
26.8164	-316.8000	-6.4409
26.9162	-316.8000	-6.4388
27.0173	-316.8000	-6.4395
27.1177	-316.8000	-6.4387
27.2176	-316.8000	-6.4358
27.3172	-316.8000	-6.4375
27.4179	-316.8000	-6.4387
27.5176	-316.8000	-6.4391
27.6181	-316.8000	-6.4363
27.7186	-316.8000	-6.4360
27.8187	-316.8000	-6.4387
27.9184	-316.8000	-6.4347
28.0187	-316.8000	-6.4354
28.1187	-316.8000	-6.4363
28.2181	-316.8000	-6.4371
28.3199	-316.8000	-6.4331
28.4196	-316.8000	-6.4342
28.5191	-316.8000	-6.4337
28.6194	-316.8000	-6.4342
28.7196	-316.8000	-6.4331
28.8193	-316.8000	-6.4304
28.9191	-316.8000	-6.4340
29.0195	-316.8000	-6.4340
29.1197	-316.8000	-6.4312
29.2191	-316.8000	-6.4316
29.3198	-316.8000	-6.4337
29.4207	-316.8000	-6.4327
29.5201	-316.8000	-6.4320
29.6202	-316.8000	-6.4322
29.7205	-316.8000	-6.4295
29.8218	-316.8000	-6.4296
29.9216	-316.8000	-6.4288
30.0228	-316.8000	-6.4265
30.1224	-316.8000	-6.4284
30.2232	-316.8000	-6.4290
30.3236	-316.8000	-6.4290
30.4232	-316.8000	-6.4299
30.5232	-316.8000	-6.4304
30.6239	-316.8000	-6.4274
30.7232	-316.8000	-6.4278
30.8248	-316.8000	-6.4251
30.9250	-316.8000	-6.4208
31.0259	-316.8000	-6.4255
31.1259	-316.8000	-6.4249
31.2256	-316.8000	-6.4244
31.3261	-316.8000	-6.4258
31.4261	-316.8000	-6.4246
31.5268	-316.8000	-6.4248
31.6278	-316.8000	-6.4256
31.7274	-316.8000	-6.4222
31.8290	-316.8000	-6.4226
31.9291	-316.8000	-6.4200
32.0299	-316.8000	-6.4261
32.1294	-316.8000	-6.4229
32.2295	-316.8000	-6.4204
32.3300	-316.8000	-6.4221
32.4321	-316.8000	-6.4242
32.5325	-316.8000	-6.4230
32.6337	-316.8000	-6.4226
32.7348	-316.8000	-6.4222
32.8347	-316.8000	-6.4217
32.9359	-316.8000	-6.4204
33.0358	-316.8000	-6.4182
33.1360	-316.8000	-6.4193
33.2357	-316.8000	-6.4174
33.3369	-316.8000	-6.4170
33.4364	-316.8000	-6.4187
33.5364	-316.8000	-6.4190
33.6366	-316.8000	-6.4193
33.7367	-316.8000	-6.4170
33.8361	-316.8000	-6.4183
33.9363	-316.8000	-6.4156
34.0362	-316.8000	-6.4159
34.1379	-316.8000	-6.4172
34.2385	-316.8000	-6.4220
34.3384	-316.8000	-6.4166
34.4398	-316.8000	-6.4171
34.5391	-316.8000	-6.4149
34.6400	-316.8000	-6.4167
34.7391	-316.8000	-6.4153
34.8407	-316.8000	-6.4098
34.9414	-316.8000	-6.4083
35.0422	-316.8000	-6.4157
35.1437	-316.8000	-6.4139
35.2449	-316.8000	-6.4135
35.3452	-316.8000	-6.4140
35.4458	-316.8000	-6.4136
35.5470	-316.8000	-6.4123
35.6464	-316.8000	-6.4097
35.7463	-316.8000	-6.4084
35.8462	-316.8000	-6.4126
35.9465	-316.8000	-6.4126
36.0464	-316.8000	-6.4118
36.1465	-316.8000	-6.4142
36.2479	-316.8000	-6.4079
36.3477	-316.8000	-6.4112
36.4478	-316.8000	-6.4108
36.5482	-316.8000	-6.4086
36.6486	-316.8000	-6.4106
36.7485	-316.8000	-6.4088
36.8491	-316.8000	-6.4079
36.9494	-316.8000	-6.4107
37.0496	-316.8000	-6.4089
37.1498	-316.8000	-6.4048
37.2503	-316.8000	-6.4079
37.3510	-316.8000	-6.4104
37.4509	-316.8000	-6.4070
37.5508	-316.8000	-6.4031
37.6509	-316.8000	-6.4036
37.7507	-316.8000	-6.4121
37.8507	-316.8000	-6.4052
37.9503	-316.8000	-6.4057
38.0502	-316.8000	-6.4043
38.1502	-316.8000	-6.4067
38.2503	-316.8000	-6.4072
38.3507	-316.8000	-6.4029
38.4502	-316.8000	-6.4067
38.5508	-316.8000	-6.4054
38.6513	-316.8000	-6.4076
38.7520	-316.8000	-6.4026
38.8518	-316.8000	-6.4035
38.9529	-316.8000	-6.4043
39.0526	-316.8000	-6.4008
39.1523	-316.8000	-6.3992
39.2528	-316.8000	-6.4025
39.3525	-316.8000	-6.4028
39.4539	-316.8000	-6.4036
39.5534	-316.8000	-6.4012
39.6538	-316.8000	-6.4018
39.7536	-316.8000	-6.4016
39.8532	-316.8000	-6.4005
39.9538	-316.8000	-6.3991
40.0535	-316.8000	-6.4021
40.1541	-316.8000	-6.4042
40.2546	-316.8000	-6.4038
40.3559	-316.8000	-6.3996
40.4569	-316.8000	-6.4021
40.5576	-316.8000	-6.3981
40.6581	-316.8000	-6.3999
40.7583	-316.8000	-6.4001
40.8599	-316.8000	-6.4026
40.9599	-316.8000	-6.4008
41.0599	-316.8000	-6.3995
41.1591	-316.8000	-6.3969
41.2594	-316.8000	-6.3995
41.3591	-316.8000	-6.3970
41.4599	-316.8000	-6.3973
41.5608	-316.8000	-6.3990
41.6618	-316.8000	-6.3979
41.7622	-316.8000	-6.3958
41.8628	-316.8000	-6.3964
41.9626	-316.8000	-6.3967
42.0639	-316.8000	-6.3957
42.1639	-316.8000	-6.3935
42.2649	-316.8000	-6.3947
42.3649	-316.8000	-6.3948
42.4649	-316.8000	-6.3967
42.5659	-316.8000	-6.3940
42.6651	-316.8000	-6.3965
42.7660	-316.8000	-6.3932
42.8653	-316.8000	-6.3936
42.9653	-316.8000	-6.3922
43.0666	-316.8000	-6.3943
43.1664	-316.8000	-6.3928
43.2664	-316.8000	-6.3929
43.3675	-316.8000	-6.3882
43.4681	-316.8000	-6.3904
43.5678	-316.8000	-6.3935
43.6671	-316.8000	-6.3927
43.7690	-316.8000	-6.3918
43.8686	-316.8000	-6.3941
43.9694	-316.8000	-6.3926
44.0693	-316.8000	-6.3912
44.1700	-316.8000	-6.3909
44.2707	-316.8000	-6.3911
44.3704	-316.8000	-6.3903
44.4710	-316.8000	-6.3926
44.5711	-316.8000	-6.3907
44.6711	-316.8000	-6.3913
44.7717	-316.8000	-6.3926
44.8717	-316.8000	-6.3897
44.9719	-316.8000	-6.3890
45.0717	-316.8000	-6.3896
45.1716	-316.8000	-6.3898
45.2712	-316.8000	-6.3879
45.3715	-316.8000	-6.3898
45.4714	-316.8000	-6.3928
45.5723	-316.8000	-6.3914
45.6722	-316.8000	-6.3888
45.7726	-316.8000	-6.3885
45.8725	-316.8000	-6.3868
45.9731	-316.8000	-6.3837
46.0729	-316.8000	-6.3855
46.1731	-316.8000	-6.3863
46.2733	-316.8000	-6.3853
46.3734	-316.8000	-6.3870
46.4734	-316.8000	-6.3856
46.5739	-316.8000	-6.3873
46.6733	-316.8000	-6.3883
46.7742	-316.8000	-6.3869
46.8748	-316.8000	-6.3867
46.9749	-316.8000	-6.3862
47.0749	-316.8000	-6.3849
47.1749	-316.8000	-6.3858
47.2751	-316.8000	-6.3839
47.3753	-316.8000	-6.3837
47.4757	-316.8000	-6.3831
47.5759	-316.8000	-6.3812
47.6753	-316.8000	-6.3814
47.7752	-316.8000	-6.3849
47.8761	-316.8000	-6.3844
47.9753	-316.8000	-6.3833
48.0767	-316.8000	-6.3847
48.1770	-316.8000	-6.3872
48.2764	-316.8000	-6.3843
48.3771	-316.8000	-6.3800
48.4764	-316.8000	-6.3836
48.5766	-316.8000	-6.3814
48.6764	-316.8000	-6.3829
48.7771	-316.8000	-6.3829
48.8776	-316.8000	-6.3824
48.9775	-316.8000	-6.3836
49.0779	-316.8000	-6.3830
49.1791	-316.8000	-6.3777
49.2785	-316.8000	-6.3790
49.3786	-316.8000	-6.3766
49.4799	-316.8000	-6.3811
49.5792	-316.8000	-6.3805
49.6799	-316.8000	-6.3806
49.7793	-316.8000	-6.3818
49.8799	-316.8000	-6.3818
49.9803	-316.8000	-6.3798
50.0807	-316.8000	-6.3801
50.1806	-316.8000	-6.3808
50.2819	-316.8000	-6.3788
50.3822	-316.8000	-6.3796
50.4827	-316.8000	-6.3807
50.5832	-316.8000	-6.3793
50.6841	-316.8000	-6.3771
50.7843	-316.8000	-6.3786
50.8842	-316.8000	-6.3773
50.9852	-316.8000	-6.3791
51.0862	-316.8000	-6.3790
51.1864	-316.8000	-6.3772
51.2870	-316.8000	-6.3754
51.3865	-316.8000	-6.3744
51.4866	-316.8000	-6.3731
51.5866	-316.8000	-6.3736
51.6865	-316.8000	-6.3757
51.7870	-316.8000	-6.3759
51.8863	-316.8000	-6.3791
51.9865	-316.8000	-6.3778
52.0880	-316.8000	-6.3761
52.1879	-316.8000	-6.3747
52.2876	-316.8000	-6.3752
52.3881	-316.8000	-6.3751
52.4882	-316.8000	-6.3762
52.5890	-316.8000	-6.3736
52.6883	-316.8000	-6.3761
52.7890	-316.8000	-6.3762
52.8888	-316.8000	-6.3749
52.9900	-316.8000	-6.3749
53.0909	-316.8000	-6.3750
53.1912	-316.8000	-6.3720
53.2912	-316.8000	-6.3724
53.3920	-316.8000	-6.3732
53.4912	-316.8000	-6.3748
53.5924	-316.8000	-6.3735
53.6931	-316.8000	-6.3713
53.7931	-316.8000	-6.3731
53.8927	-316.8000	-6.3767
53.9925	-316.8000	-6.3727
54.0931	-316.8000	-6.3719
54.1933	-316.8000	-6.3708
54.2941	-316.8000	-6.3718
54.3942	-316.8000	-6.3736
54.4950	-316.8000	-6.3709
54.5959	-316.8000	-6.3729
54.6961	-316.8000	-6.3715
54.7958	-316.8000	-6.3719
54.8955	-316.8000	-6.3705
54.9952	-316.8000	-6.3694
55.0961	-316.8000	-6.3707
55.1965	-316.8000	-6.3691
55.2971	-316.8000	-6.3701
55.3965	-316.8000	-6.3701
55.4980	-316.8000	-6.3720
55.5977	-316.8000	-6.3689
55.6980	-316.8000	-6.3720
55.7977	-316.8000	-6.3706
55.8992	-316.8000	-6.3703
55.9987	-316.8000	-6.3701
56.0983	-316.8000	-6.3689
56.1984	-316.8000	-6.3741
56.2984	-316.8000	-6.3705
56.4002	-316.8000	-6.3703
56.5000	-316.8000	-6.3701
56.6004	-316.8000	-6.3710
56.7003	-316.8000	-6.3702
56.8009	-316.8000	-6.3699
56.9009	-316.8000	-6.3703
57.0020	-316.8000	-6.3698
57.1022	-316.8000	-6.3675
57.2023	-316.8000	-6.3669
57.3025	-316.8000	-6.3677
57.4031	-316.8000	-6.3701
57.5032	-316.8000	-6.3683
57.6025	-316.8000	-6.3688
57.7041	-316.8000	-6.3696
57.8039	-316.8000	-6.3704
57.9036	-316.8000	-6.3678
58.0051	-316.8000	-6.3691
58.1051	-316.8000	-6.3697
58.2053	-316.8000	-6.3713
58.3060	-316.8000	-6.3682
58.4057	-316.8000	-6.3680
58.5058	-316.8000	-6.3683
58.6059	-316.8000	-6.3671
58.7059	-316.8000	-6.3662
58.8056	-316.8000	-6.3648
58.9064	-316.8000	-6.3709
59.0065	-316.8000	-6.3676
59.1065	-316.8000	-6.3686
59.2073	-316.8000	-6.3669
59.3082	-316.8000	-6.3690
59.4086	-316.8000	-6.3670
59.5098	-316.8000	-6.3658
59.6094	-316.8000	-6.3651
59.7100	-316.8000	-6.3636
59.8102	-316.8000	-6.3652
59.9110	-316.8000	-6.3630
60.0111	-316.8000	-6.3651
60.1121	-316.8000	-6.3628
60.2132	-316.8000	-6.3658
60.3130	-316.8000	-6.3638
60.4130	-316.8000	-6.3641
60.5134	-316.8000	-6.3620
60.6143	-316.8000	-6.3621
60.7155	-316.8000	-6.3621
60.8158	-316.8000	-6.3633
60.9157	-316.8000	-6.3649
61.0158	-316.8000	-6.3651
61.1158	-316.8000	-6.3639
61.2155	-316.8000	-6.3624
61.3171	-316.8000	-6.3602
61.4166	-316.8000	-6.3623
61.5166	-316.8000	-6.3581
61.6167	-316.8000	-6.3591
61.7167	-316.8000	-6.3612
61.8166	-316.8000	-6.3599
61.9166	-316.8000	-6.3584
62.0172	-316.8000	-6.3544
62.1166	-316.8000	-6.3548
62.2166	-316.8000	-6.3543
62.3165	-316.8000	-6.3581
62.4171	-316.8000	-6.3560
62.5166	-316.8000	-6.3594
62.6167	-316.8000	-6.3621
62.7181	-316.8000	-6.3584
62.8193	-316.8000	-6.3537
62.9199	-316.8000	-6.3596
63.0202	-316.8000	-6.3591
63.1196	-316.8000	-6.3598
63.2201	-316.8000	-6.3604
63.3200	-316.8000	-6.3563
63.4196	-316.8000	-6.3560
63.5198	-316.8000	-6.3553
63.6205	-316.8000	-6.3549
63.7212	-316.8000	-6.3557
63.8207	-316.8000	-6.3547
63.9206	-316.8000	-6.3524
64.0205	-316.8000	-6.3568
64.1204	-316.8000	-6.3537
64.2204	-316.8000	-6.3561
64.3210	-316.8000	-6.3573
64.4211	-316.8000	-6.3567
64.5205	-316.8000	-6.3569
64.6203	-316.8000	-6.3553
64.7203	-316.8000	-6.3532
64.8212	-316.8000	-6.3562
64.9211	-316.8000	-6.3551
65.0212	-316.8000	-6.3545
65.1211	-316.8000	-6.3576
65.2207	-316.8000	-6.3558
65.3221	-316.8000	-6.3543
65.4215	-316.8000	-6.3537
65.5214	-316.8000	-6.3517
65.6222	-316.8000	-6.3534
65.7221	-316.8000	-6.3562
65.8230	-316.8000	-6.3564
65.9234	-316.8000	-6.3574
66.0241	-316.8000	-6.3530
66.1242	-316.8000	-6.3527
66.2238	-316.8000	-6.3468
66.3235	-316.8000	-6.3490
66.4235	-316.8000	-6.3504
66.5234	-316.8000	-6.3538
66.6237	-316.8000	-6.3502
66.7233	-316.8000	-6.3513
66.8233	-316.8000	-6.3514
66.9234	-316.8000	-6.3509
67.0243	-316.8000	-6.3500
67.1243	-316.8000	-6.3544
67.2250	-316.8000	-6.3561
67.3251	-316.8000	-6.3540
67.4248	-316.8000	-6.3544
67.5252	-316.8000	-6.3505
67.6254	-316.8000	-6.3516
67.7262	-316.8000	-6.3495
67.8261	-316.8000	-6.3469
67.9259	-316.8000	-6.3510
68.0259	-316.8000	-6.3492
68.1263	-316.8000	-6.3504
68.2254	-316.8000	-6.3514
68.3263	-316.8000	-6.3489
68.4257	-316.8000	-6.3471
68.5261	-316.8000	-6.3490
68.6265	-316.8000	-6.3486
68.7267	-316.8000	-6.3526
68.8266	-316.8000	-6.3515
68.9281	-316.8000	-6.3505
69.0281	-316.8000	-6.3512
69.1280	-316.8000	-6.3477
69.2282	-316.8000	-6.3488
69.3293	-316.8000	-6.3492
69.4291	-316.8000	-6.3479
69.5301	-316.8000	-6.3493
69.6310	-316.8000	-6.3485
69.7310	-316.8000	-6.3465
69.8320	-316.8000	-6.3479
69.9332	-316.8000	-6.3490
70.0332	-316.8000	-6.3474
70.1342	-316.8000	-6.3480
70.2338	-316.8000	-6.3491
70.3335	-316.8000	-6.3476
70.4343	-316.8000	-6.3451
70.5341	-316.8000	-6.3454
70.6350	-316.8000	-6.3470
70.7358	-316.8000	-6.3457
70.8358	-316.8000	-6.3478
70.9365	-316.8000	-6.3480
71.0365	-316.8000	-6.3494
71.1373	-316.8000	-6.3487
71.2366	-316.8000	-6.3478
71.3381	-316.8000	-6.3470
71.4375	-316.8000	-6.3435
71.5374	-316.8000	-6.3437
71.6386	-316.8000	-6.3457
71.7400	-316.8000	-6.3455
71.8400	-316.8000	-6.3455
71.9396	-316.8000	-6.3461
72.0395	-316.8000	-6.3468
72.1399	-316.8000	-6.3441
72.2397	-316.8000	-6.3485
72.3400	-316.8000	-6.3471
72.4411	-316.8000	-6.3481
72.5413	-316.8000	-6.3477
72.6411	-316.8000	-6.3447
72.7407	-316.8000	-6.3442
72.8406	-316.8000	-6.3444
72.9416	-316.8000	-6.3469
73.0417	-316.8000	-6.3414
73.1433	-316.8000	-6.3447
73.2427	-316.8000	-6.3420
73.3425	-316.8000	-6.3432
73.4429	-316.8000	-6.3458
73.5440	-316.8000	-6.3420
73.6440	-316.8000	-6.3469
73.7453	-316.8000	-6.3428
73.8446	-316.8000	-6.3435
73.9444	-316.8000	-6.3432
74.0444	-316.8000	-6.3384
74.1446	-316.8000	-6.3428
74.2452	-316.8000	-6.3449
74.3450	-316.8000	-6.3409
74.4450	-316.8000	-6.3449
74.5446	-316.8000	-6.3444
74.6455	-316.8000	-6.3432
74.7455	-316.8000	-6.3455
74.8456	-316.8000	-6.3438
74.9459	-316.8000	-6.3432
75.0458	-316.8000	-6.3423
75.1456	-316.8000	-6.3422
75.2467	-316.8000	-6.3428
75.3465	-316.8000	-6.3443
75.4472	-316.8000	-6.3419
75.5468	-316.8000	-6.3421
75.6482	-316.8000	-6.3406
75.7476	-316.8000	-6.3381
75.8494	-316.8000	-6.3404
75.9492	-316.8000	-6.3425
76.0488	-316.8000	-6.3396
76.1485	-316.8000	-6.3424
76.2493	-316.8000	-6.3425
76.3487	-316.8000	-6.3376
76.4502	-316.8000	-6.3403
76.5510	-316.8000	-6.3397
76.6512	-316.8000	-6.3385
76.7512	-316.8000	-6.3417
76.8504	-316.8000	-6.3405
76.9513	-316.8000	-6.3372
77.0508	-316.8000	-6.3398
77.1512	-316.8000	-6.3411
77.2510	-316.8000	-6.3409
77.3519	-316.8000	-6.3399
77.4515	-316.8000	-6.3384
77.5522	-316.8000	-6.3403
77.6532	-316.8000	-6.3408
77.7542	-316.8000	-6.3393
77.8540	-316.8000	-6.3393
77.9544	-316.8000	-6.3395
78.0562	-316.8000	-6.3367
78.1572	-316.8000	-6.3372
78.2567	-316.8000	-6.3381
78.3566	-316.8000	-6.3386
78.4582	-316.8000	-6.3391
78.5586	-316.8000	-6.3378
78.6593	-316.8000	-6.3397
78.7591	-316.8000	-6.3382
78.8591	-316.8000	-6.3357
78.9588	-316.8000	-6.3364
79.0588	-316.8000	-6.3400
79.1602	-316.8000	-6.3368
79.2613	-316.8000	-6.3354
79.3604	-316.8000	-6.3374
79.4608	-316.8000	-6.3365
79.5612	-316.8000	-6.3374
79.6605	-316.8000	-6.3376
79.7611	-316.8000	-6.3385
79.8608	-316.8000	-6.3367
79.9616	-316.8000	-6.3366
80.0623	-316.8000	-6.3381
80.1626	-316.8000	-6.3359
80.2633	-316.8000	-6.3372
80.3631	-316.8000	-6.3343
80.4624	-316.8000	-6.3359
80.5634	-316.8000	-6.3354
80.6642	-316.8000	-6.3380
80.7638	-316.8000	-6.3337
80.8638	-316.8000	-6.3340
80.9635	-316.8000	-6.3349
81.0642	-316.8000	-6.3346
81.1644	-316.8000	-6.3331
81.2648	-316.8000	-6.3362
81.3646	-316.8000	-6.3362
81.4646	-316.8000	-6.3377
81.5663	-316.8000	-6.3390
81.6656	-316.8000	-6.3367
81.7658	-316.8000	-6.3366
81.8656	-316.8000	-6.3382
81.9664	-316.8000	-6.3363
82.0660	-316.8000	-6.3364
82.1666	-316.8000	-6.3336
82.2668	-316.8000	-6.3334
82.3668	-316.8000	-6.3304
82.4673	-316.8000	-6.3331
82.5668	-316.8000	-6.3309
82.6668	-316.8000	-6.3312
82.7668	-316.8000	-6.3318
82.8682	-316.8000	-6.3307
82.9676	-316.8000	-6.3325
83.0689	-316.8000	-6.3346
83.1690	-316.8000	-6.3342
83.2693	-316.8000	-6.3352
83.3689	-316.8000	-6.3323
83.4692	-316.8000	-6.3318
83.5692	-316.8000	-6.3328
83.6692	-316.8000	-6.3343
83.7691	-316.8000	-6.3337
83.8691	-316.8000	-6.3314
83.9692	-316.8000	-6.3331
84.0692	-316.8000	-6.3332
84.1693	-316.8000	-6.3320
84.2702	-316.8000	-6.3300
84.3706	-316.8000	-6.3295
84.4712	-316.8000	-6.3336
84.5722	-316.8000	-6.3321
84.6723	-316.8000	-6.3331
84.7721	-316.8000	-6.3329
84.8720	-316.8000	-6.3299
84.9716	-316.8000	-6.3310
85.0723	-316.8000	-6.3295
85.1717	-316.8000	-6.3278
85.2721	-316.8000	-6.3314
85.3720	-316.8000	-6.3318
85.4722	-316.8000	-6.3305
85.5723	-316.8000	-6.3329
85.6733	-316.8000	-6.3326
85.7734	-316.8000	-6.3309
85.8730	-316.8000	-6.3300
85.9730	-316.8000	-6.3310
86.0727	-316.8000	-6.3329
86.1742	-316.8000	-6.3293
86.2736	-316.8000	-6.3272
86.3753	-316.8000	-6.3316
86.4772	-316.8000	-6.3309
86.5772	-316.8000	-6.3274
86.6767	-316.8000	-6.3286
86.7783	-316.8000	-6.3331
86.8781	-316.8000	-6.3298
86.9794	-316.8000	-6.3299
87.0802	-316.8000	-6.3267
87.1812	-316.8000	-6.3303
87.2807	-316.8000	-6.3282
87.3809	-316.8000	-6.3293
87.4814	-316.8000	-6.3306
87.5813	-316.8000	-6.3317
87.6806	-316.8000	-6.3280
87.7814	-316.8000	-6.3293
87.8806	-316.8000	-6.3267
87.9817	-316.8000	-6.3295
88.0819	-316.8000	-6.3320
88.1817	-316.8000	-6.3271
88.2822	-316.8000	-6.3325
88.3833	-316.8000	-6.3290
88.4829	-316.8000	-6.3289
88.5833	-316.8000	-6.3321
88.6829	-316.8000	-6.3288
88.7826	-316.8000	-6.3312
88.8829	-316.8000	-6.3277
88.9832	-316.8000	-6.3282
89.0830	-316.8000	-6.3293
89.1827	-316.8000	-6.3277
89.2831	-316.8000	-6.3239
89.3833	-316.8000	-6.3268
89.4844	-316.8000	-6.3260
89.5841	-316.8000	-6.3267
89.6844	-316.8000	-6.3288
89.7840	-316.8000	-6.3276
89.8839	-316.8000	-6.3278
89.9846	-316.8000	-6.3274
90.0849	-316.8000	-6.3273
90.1851	-316.8000	-6.3273
90.2856	-316.8000	-6.3228
90.3857	-316.8000	-6.3273
90.4864	-316.8000	-6.3251
90.5873	-316.8000	-6.3260
90.6883	-316.8000	-6.3276
90.7877	-316.8000	-6.3301
90.8882	-316.8000	-6.3239
90.9884	-316.8000	-6.3271
91.0887	-316.8000	-6.3274
91.1890	-316.8000	-6.3244
91.2890	-316.8000	-6.3294
91.3903	-316.8000	-6.3329
91.4898	-316.8000	-6.3251
91.5903	-316.8000	-6.3264
91.6899	-316.8000	-6.3297
91.7905	-316.8000	-6.3276
91.8905	-316.8000	-6.3241
91.9904	-316.8000	-6.3221
92.0907	-316.8000	-6.3259
92.1925	-316.8000	-6.3260
92.2921	-316.8000	-6.3274
92.3919	-316.8000	-6.3264
92.4926	-316.8000	-6.3236
92.5924	-316.8000	-6.3218
92.6915	-316.8000	-6.3221
92.7923	-316.8000	-6.3252
92.8933	-316.8000	-6.3229
92.9938	-316.8000	-6.3239
93.0944	-316.8000	-6.3243
93.1940	-316.8000	-6.3233
93.2938	-316.8000	-6.3285
93.3939	-316.8000	-6.3238
93.4943	-316.8000	-6.3271
93.5940	-316.8000	-6.3202
93.6937	-316.8000	-6.3252
93.7944	-316.8000	-6.3218
93.8944	-316.8000	-6.3239
93.9943	-316.8000	-6.3222
94.0946	-316.8000	-6.3197
94.1951	-316.8000	-6.3238
94.2963	-316.8000	-6.3239
94.3969	-316.8000	-6.3227
94.4970	-316.8000	-6.3189
94.5984	-316.8000	-6.3206
94.6995	-316.8000	-6.3214
94.7992	-316.8000	-6.3184
94.8990	-316.8000	-6.3217
94.9998	-316.8000	-6.3196
95.0998	-316.8000	-6.3210
95.1996	-316.8000	-6.3215
95.2999	-316.8000	-6.3209
95.4013	-316.8000	-6.3193
95.5011	-316.8000	-6.3205
95.6012	-316.8000	-6.3222
95.7016	-316.8000	-6.3203
95.8024	-316.8000	-6.3185
95.9026	-316.8000	-6.3163
96.0037	-316.8000	-6.3185
96.1044	-316.8000	-6.3190
96.2043	-316.8000	-6.3212
96.3042	-316.8000	-6.3194
96.4044	-316.8000	-6.3188
96.5045	-316.8000	-6.3163
96.6045	-316.8000	-6.3181
96.7046	-316.8000	-6.3159
96.8037	-316.8000	-6.3179
96.9037	-316.8000	-6.3158
97.0037	-316.8000	-6.3185
97.1040	-316.8000	-6.3208
97.2037	-316.8000	-6.3177
97.3038	-316.8000	-6.3169
97.4054	-316.8000	-6.3199
97.5065	-316.8000	-6.3171
97.6062	-316.8000	-6.3177
97.7058	-316.8000	-6.3159
97.8067	-316.8000	-6.3202
97.9070	-316.8000	-6.3175
98.0070	-316.8000	-6.3133
98.1070	-316.8000	-6.3197
98.2070	-316.8000	-6.3179
98.3077	-316.8000	-6.3146
98.4086	-316.8000	-6.3158
98.5077	-316.8000	-6.3153
98.6084	-316.8000	-6.3149
98.7096	-316.8000	-6.3178
98.8103	-316.8000	-6.3185
98.9115	-316.8000	-6.3188
99.0112	-316.8000	-6.3176
99.1118	-316.8000	-6.3170
99.2118	-316.8000	-6.3141
99.3125	-316.8000	-6.3160
99.4121	-316.8000	-6.3189
99.5125	-316.8000	-6.3175
99.6124	-316.8000	-6.3125
99.7118	-316.8000	-6.3166
99.8125	-316.8000	-6.3157
99.9127	-316.8000	-6.3198
100.0145	-316.8000	-6.3180
100.1154	-316.8000	-6.3153
100.2152	-316.8000	-6.3156
100.3150	-316.8000	-6.3137
100.4153	-316.8000	-6.3151
100.5157	-316.8000	-6.3161
100.6163	-316.8000	-6.3160
100.7174	-316.8000	-6.3140
100.8170	-316.8000	-6.3151
100.9178	-316.8000	-6.3135
101.0204	-316.8000	-6.3126
101.1198	-316.8000	-6.3157
101.2213	-316.8000	-6.3145
101.3214	-316.8000	-6.3177
101.4223	-316.8000	-6.3140
101.5219	-316.8000	-6.3126
101.6223	-316.8000	-6.3139
101.7218	-316.8000	-6.3124
101.8235	-316.8000	-6.3134
101.9235	-316.8000	-6.3132
102.0234	-316.8000	-6.3166
102.1231	-316.8000	-6.3145
102.2228	-316.8000	-6.3151
102.3238	-316.8000	-6.3145
102.4247	-316.8000	-6.3140
102.5254	-316.8000	-6.3155
102.6255	-316.8000	-6.3146
102.7246	-316.8000	-6.3122
102.8254	-316.8000	-6.3136
102.9248	-316.8000	-6.3121
103.0255	-316.8000	-6.3119
103.1253	-316.8000	-6.3132
103.2264	-316.8000	-6.3139
103.3263	-316.8000	-6.3132
103.4264	-316.8000	-6.3112
103.5261	-316.8000	-6.3115
103.6266	-316.8000	-6.3110
103.7258	-316.8000	-6.3123
103.8265	-316.8000	-6.3137
103.9261	-316.8000	-6.3130
104.0271	-316.8000	-6.3117
104.1270	-316.8000	-6.3123
104.2270	-316.8000	-6.3109
104.3284	-316.8000	-6.3127
104.4285	-316.8000	-6.3135
104.5285	-316.8000	-6.3170
104.6280	-316.8000	-6.3135
104.7297	-316.8000	-6.3103
104.8300	-316.8000	-6.3145
104.9309	-316.8000	-6.3147
105.0321	-316.8000	-6.3133
105.1326	-316.8000	-6.3132
105.2327	-316.8000	-6.3109
105.3336	-316.8000	-6.3108
105.4334	-316.8000	-6.3102
105.5337	-316.8000	-6.3130
105.6344	-316.8000	-6.3136
105.7342	-316.8000	-6.3121
105.8346	-316.8000	-6.3134
105.9347	-316.8000	-6.3107
106.0355	-316.8000	-6.3102
106.1357	-316.8000	-6.3130
106.2366	-316.8000	-6.3130
106.3370	-316.8000	-6.3099
106.4370	-316.8000	-6.3124
106.5370	-316.8000	-6.3117
106.6370	-316.8000	-6.3115
106.7374	-316.8000	-6.3143
106.8374	-316.8000	-6.3115
106.9370	-316.8000	-6.3113
107.0370	-316.8000	-6.3111
107.1369	-316.8000	-6.3090
107.2378	-316.8000	-6.3137
107.3377	-316.8000	-6.3108
107.4388	-316.8000	-6.3105
107.5404	-316.8000	-6.3101
107.6406	-316.8000	-6.3093
107.7407	-316.8000	-6.3123
107.8415	-316.8000	-6.3112
107.9415	-316.8000	-6.3096
108.0407	-316.8000	-6.3096
108.1410	-316.8000	-6.3070
108.2408	-316.8000	-6.3077
108.3415	-316.8000	-6.3118
108.4413	-316.8000	-6.3080
108.5411	-316.8000	-6.3090
108.6410	-316.8000	-6.3083
108.7408	-316.8000	-6.3080
108.8423	-316.8000	-6.3090
108.9434	-316.8000	-6.3092
109.0436	-316.8000	-6.3111
109.1434	-316.8000	-6.3100
109.2430	-316.8000	-6.3070
109.3436	-316.8000	-6.3072
109.4439	-316.8000	-6.3082
109.5456	-316.8000	-6.3096
109.6466	-316.8000	-6.3087
109.7466	-316.8000	-6.3095
109.8463	-316.8000	-6.3078
109.9476	-316.8000	-6.3081
110.0472	-316.8000	-6.3084
110.1484	-316.8000	-6.3096
110.2491	-316.8000	-6.3060
110.3505	-316.8000	-6.3057
110.4516	-316.8000	-6.3047
110.5512	-316.8000	-6.3069
110.6534	-316.8000	-6.3058
110.7532	-316.8000	-6.3050
110.8537	-316.8000	-6.3083
110.9539	-316.8000	-6.3086
111.0537	-316.8000	-6.3049
111.1554	-316.8000	-6.3032
111.2564	-316.8000	-6.3066
111.3564	-316.8000	-6.3056
111.4565	-316.8000	-6.3053
111.5563	-316.8000	-6.3066
111.6572	-316.8000	-6.3058
111.7583	-316.8000	-6.3054
111.8583	-316.8000	-6.3050
111.9580	-316.8000	-6.3068
112.0595	-316.8000	-6.3076
112.1596	-316.8000	-6.3055
112.2591	-316.8000	-6.3084
112.3604	-316.8000	-6.3057
112.4598	-316.8000	-6.3067
112.5607	-316.8000	-6.3049
112.6604	-316.8000	-6.3054
112.7604	-316.8000	-6.3062
112.8624	-316.8000	-6.3060
112.9600	-316.8000	-6.3035
113.0599	-316.8000	-6.3061
113.1617	-316.8000	-6.3057
113.2616	-316.8000	-6.3043
113.3614	-316.8000	-6.3063
113.4611	-316.8000	-6.3070
113.5609	-316.8000	-6.3048
113.6615	-316.8000	-6.3051
113.7618	-316.8000	-6.3070
113.8635	-316.8000	-6.3047
113.9628	-316.8000	-6.3047
114.0628	-316.8000	-6.3061
114.1628	-316.8000	-6.3066
114.2645	-316.8000	-6.3050
114.3639	-316.8000	-6.3081
114.4648	-316.8000	-6.3033
114.5651	-316.8000	-6.3036
114.6667	-316.8000	-6.3022
114.7669	-316.8000	-6.3037
114.8670	-316.8000	-6.3022
114.9679	-316.8000	-6.3043
115.0688	-316.8000	-6.3078
115.1690	-316.8000	-6.3052
115.2691	-316.8000	-6.3056
115.3688	-316.8000	-6.3038
115.4690	-316.8000	-6.2998
115.5693	-316.8000	-6.3038
115.6697	-316.8000	-6.3036
115.7691	-316.8000	-6.3047
115.8694	-316.8000	-6.3027
115.9693	-316.8000	-6.3035
116.0697	-316.8000	-6.3038
116.1695	-316.8000	-6.3031
116.2695	-316.8000	-6.3025
116.3706	-316.8000	-6.3033
116.4699	-316.8000	-6.3045
116.5709	-316.8000	-6.3032
116.6709	-316.8000	-6.3035
116.7718	-316.8000	-6.3026
116.8723	-316.8000	-6.3007
116.9725	-316.8000	-6.3023
117.0726	-316.8000	-6.3047
117.1718	-316.8000	-6.3018
117.2719	-316.8000	-6.3004
117.3745	-316.8000	-6.3006
117.4728	-316.8000	-6.3002
117.5738	-316.8000	-6.3019
117.6739	-316.8000	-6.3018
117.7746	-316.8000	-6.3033
117.8748	-316.8000	-6.3014
117.9749	-316.8000	-6.3028
118.0755	-316.8000	-6.3010
118.1759	-316.8000	-6.3018
118.2768	-316.8000	-6.3054
118.3772	-316.8000	-6.3036
118.4778	-316.8000	-6.3020
118.5775	-316.8000	-6.3014
118.6768	-316.8000	-6.2988
118.7775	-316.8000	-6.3009
118.8787	-316.8000	-6.2995
118.9795	-316.8000	-6.3006
119.0790	-316.8000	-6.2983
119.1795	-316.8000	-6.2977
119.2793	-316.8000	-6.2995
119.3795	-316.8000	-6.3015
119.4794	-316.8000	-6.3011
119.5799	-316.8000	-6.3007
119.6799	-316.8000	-6.2995
119.7798	-316.8000	-6.3021
119.8815	-316.8000	-6.3004
119.9814	-316.8000	-6.3027
120.0810	-316.8000	-6.3000
120.1823	-316.8000	-6.3011
120.2826	-316.8000	-6.2982
120.3828	-316.8000	-6.2993
120.4826	-316.8000	-6.3011
120.5818	-316.8000	-6.3008
120.6825	-316.8000	-6.2992
120.7824	-316.8000	-6.2984
120.8823	-316.8000	-6.2983
120.9820	-316.8000	-6.3014
121.0820	-316.8000	-6.2999
121.1820	-316.8000	-6.2983
121.2832	-316.8000	-6.3012
121.3837	-316.8000	-6.3009
121.4833	-316.8000	-6.3012
121.5832	-316.8000	-6.3000
121.6835	-316.8000	-6.2975
121.7845	-316.8000	-6.2975
121.8849	-316.8000	-6.3010
121.9849	-316.8000	-6.2987
122.0862	-316.8000	-6.2978
122.1870	-316.8000	-6.2974
122.2872	-316.8000	-6.2968
122.3870	-316.8000	-6.2986
122.4878	-316.8000	-6.3013
122.5871	-316.8000	-6.2960
122.6872	-316.8000	-6.2975
122.7871	-316.8000	-6.2991
122.8871	-316.8000	-6.3004
122.9878	-316.8000	-6.2989
123.0871	-316.8000	-6.2960
123.1872	-316.8000	-6.2993
123.2871	-316.8000	-6.3015
123.3872	-316.8000	-6.2980
123.4875	-316.8000	-6.2970
123.5872	-316.8000	-6.2971
123.6871	-316.8000	-6.2975
123.7871	-316.8000	-6.2963
123.8871	-316.8000	-6.2988
123.9875	-316.8000	-6.2960
124.0872	-316.8000	-6.2961
124.1876	-316.8000	-6.2975
124.2886	-316.8000	-6.2982
124.3887	-316.8000	-6.2970
124.4885	-316.8000	-6.2945
124.5886	-316.8000	-6.2943
124.6880	-316.8000	-6.2962
124.7885	-316.8000	-6.2985
124.8886	-316.8000	-6.2946
124.9884	-316.8000	-6.2951
125.0885	-316.8000	-6.2949
125.1879	-316.8000	-6.2975
125.2897	-316.8000	-6.2995
125.3906	-316.8000	-6.2949
125.4900	-316.8000	-6.2955
125.5900	-316.8000	-6.2950
125.6919	-316.8000	-6.2965
125.7926	-316.8000	-6.2992
125.8927	-316.8000	-6.2958
125.9920	-316.8000	-6.2981
126.0937	-316.8000	-6.2991
126.1948	-316.8000	-6.2994
126.2943	-316.8000	-6.2932
126.3943	-316.8000	-6.2939
126.4957	-316.8000	-6.2938
126.5955	-316.8000	-6.2965
126.6954	-316.8000	-6.2986
126.7956	-316.8000	-6.2971
126.8952	-316.8000	-6.2939
126.9953	-316.8000	-6.2952
127.0960	-316.8000	-6.2957
127.1960	-316.8000	-6.2942
127.2961	-316.8000	-6.2939
127.3974	-316.8000	-6.2941
127.4986	-316.8000	-6.2939
127.5985	-316.8000	-6.2963
127.6987	-316.8000	-6.2921
127.7980	-316.8000	-6.2922
127.8979	-316.8000	-6.2918
127.9980	-316.8000	-6.2917
128.0993	-316.8000	-6.2942
128.2005	-316.8000	-6.2923
128.3016	-316.8000	-6.2920
128.4011	-316.8000	-6.2928
128.5020	-316.8000	-6.2919
128.6019	-316.8000	-6.2931
128.7025	-316.8000	-6.2956
128.8024	-316.8000	-6.2928
128.9023	-316.8000	-6.2937
129.0022	-316.8000	-6.2945
129.1025	-316.8000	-6.2959
129.2030	-316.8000	-6.2943
129.3035	-316.8000	-6.2945
129.4036	-316.8000	-6.2926
129.5034	-316.8000	-6.2922
129.6036	-316.8000	-6.2931
129.7040	-316.8000	-6.2918
129.8039	-316.8000	-6.2932
129.9048	-316.8000	-6.2956
130.0045	-316.8000	-6.2920
130.1047	-316.8000	-6.2917
130.2049	-316.8000	-6.2942
130.3053	-316.8000	-6.2932
130.4056	-316.8000	-6.2938
130.5055	-316.8000	-6.2928
130.6052	-316.8000	-6.2927
130.7049	-316.8000	-6.2891
130.8058	-316.8000	-6.2893
130.9054	-316.8000	-6.2904
131.0056	-316.8000	-6.2919
131.1057	-316.8000	-6.2900
131.2053	-316.8000	-6.2901
131.3057	-316.8000	-6.2880
131.4065	-316.8000	-6.2896
131.5070	-316.8000	-6.2877
131.6078	-316.8000	-6.2889
131.7072	-316.8000	-6.2903
131.8071	-316.8000	-6.2895
131.9073	-316.8000	-6.2896
132.0072	-316.8000	-6.2869
132.1086	-316.8000	-6.2930
132.2091	-316.8000	-6.2923
132.3095	-316.8000	-6.2941
132.4096	-316.8000	-6.2920
132.5097	-316.8000	-6.2915
132.6100	-316.8000	-6.2926
132.7110	-316.8000	-6.2953
132.8113	-316.8000	-6.2922
132.9119	-316.8000	-6.2854
133.0122	-316.8000	-6.2864
133.1135	-316.8000	-6.2901
133.2147	-316.8000	-6.2880
133.3145	-316.8000	-6.2898
133.4147	-316.8000	-6.2905
133.5146	-316.8000	-6.2900
133.6150	-316.8000	-6.2923
133.7157	-316.8000	-6.2933
133.8155	-316.8000	-6.2886
133.9153	-316.8000	-6.2916
134.0167	-316.8000	-6.2903
134.1166	-316.8000	-6.2887
134.2177	-316.8000	-6.2883
134.3178	-316.8000	-6.2876
134.4173	-316.8000	-6.2883
134.5171	-316.8000	-6.2911
134.6174	-316.8000	-6.2906
134.7171	-316.8000	-6.2885
134.8170	-316.8000	-6.2898
134.9172	-316.8000	-6.2878
135.0176	-316.8000	-6.2922
135.1185	-316.8000	-6.2888
135.2183	-316.8000	-6.2928
135.3187	-316.8000	-6.2903
135.4197	-316.8000	-6.2898
135.5196	-316.8000	-6.2912
135.6195	-316.8000	-6.2914
135.7194	-316.8000	-6.2875
135.8197	-316.8000	-6.2914
135.9195	-316.8000	-6.2929
136.0194	-316.8000	-6.2910
136.1196	-316.8000	-6.2908
136.2195	-316.8000	-6.2920
136.3197	-316.8000	-6.2878
136.4192	-316.8000	-6.2902
136.5195	-316.8000	-6.2925
136.6197	-316.8000	-6.2914
136.7197	-316.8000	-6.2869
136.8193	-316.8000	-6.2881
136.9197	-316.8000	-6.2867
137.0197	-316.8000	-6.2892
137.1197	-316.8000	-6.2889
137.2209	-316.8000	-6.2864
137.3213	-316.8000	-6.2870
137.4210	-316.8000	-6.2882
137.5212	-316.8000	-6.2869
137.6216	-316.8000	-6.2876
137.7218	-316.8000	-6.2856
137.8219	-316.8000	-6.2860
137.9212	-316.8000	-6.2887
138.0220	-316.8000	-6.2879
138.1229	-316.8000	-6.2912
138.2228	-316.8000	-6.2851
138.3240	-316.8000	-6.2872
138.4242	-316.8000	-6.2876
138.5249	-316.8000	-6.2884
138.6241	-316.8000	-6.2864
138.7245	-316.8000	-6.2873
138.8247	-316.8000	-6.2864
138.9245	-316.8000	-6.2847
139.0245	-316.8000	-6.2881
139.1249	-316.8000	-6.2790
139.2250	-316.8000	-6.2808
139.3259	-316.8000	-6.2828
139.4258	-316.8000	-6.2812
139.5259	-316.8000	-6.2803
139.6267	-316.8000	-6.2840
139.7277	-316.8000	-6.2853
139.8273	-316.8000	-6.2819
139.9270	-316.8000	-6.2880
140.0277	-316.8000	-6.2837
140.1273	-316.8000	-6.2837
140.2272	-316.8000	-6.2837
140.3276	-316.8000	-6.2859
140.4283	-316.8000	-6.2850
140.5287	-316.8000	-6.2855
140.6289	-316.8000	-6.2836
140.7298	-316.8000	-6.2861
140.8293	-316.8000	-6.2866
140.9297	-316.8000	-6.2852
141.0291	-316.8000	-6.2843
141.1307	-316.8000	-6.2837
141.2308	-316.8000	-6.2863
141.3301	-316.8000	-6.2863
141.4314	-316.8000	-6.2866
141.5317	-316.8000	-6.2879
141.6317	-316.8000	-6.2865
141.7317	-316.8000	-6.2836
141.8325	-316.8000	-6.2858
141.9339	-316.8000	-6.2854
142.0340	-316.8000	-6.2870
142.1343	-316.8000	-6.2849
142.2350	-316.8000	-6.2845
142.3359	-316.8000	-6.2846
142.4361	-316.8000	-6.2843
142.5377	-316.8000	-6.2848
142.6384	-316.8000	-6.2789
142.7399	-316.8000	-6.2831
142.8407	-316.8000	-6.2834
142.9406	-316.8000	-6.2846
143.0410	-316.8000	-6.2846
143.1410	-316.8000	-6.2852
143.2418	-316.8000	-6.2830
143.3421	-316.8000	-6.2835
143.4428	-316.8000	-6.2822
143.5437	-316.8000	-6.2806
143.6437	-316.8000	-6.2852
143.7437	-316.8000	-6.2846
143.8431	-316.8000	-6.2798
143.9447	-316.8000	-6.2813
144.0450	-316.8000	-6.2818
144.1454	-316.8000	-6.2807
144.2454	-316.8000	-6.2819
144.3460	-316.8000	-6.2839
144.4459	-316.8000	-6.2828
144.5454	-316.8000	-6.2811
144.6469	-316.8000	-6.2832
144.7461	-316.8000	-6.2793
144.8466	-316.8000	-6.2815
144.9465	-316.8000	-6.2816
145.0463	-316.8000	-6.2794
145.1462	-316.8000	-6.2797
145.2462	-316.8000	-6.2791
145.3479	-316.8000	-6.2812
145.4471	-316.8000	-6.2828
145.5490	-316.8000	-6.2794
145.6489	-316.8000	-6.2812
145.7481	-316.8000	-6.2795
145.8499	-316.8000	-6.2784
145.9497	-316.8000	-6.2780
146.0498	-316.8000	-6.2817
146.1497	-316.8000	-6.2819
146.2494	-316.8000	-6.2805
146.3498	-316.8000	-6.2801
146.4495	-316.8000	-6.2794
146.5496	-316.8000	-6.2780
146.6497	-316.8000	-6.2821
146.7498	-316.8000	-6.2787
146.8492	-316.8000	-6.2769
146.9497	-316.8000	-6.2807
147.0500	-316.8000	-6.2839
147.1509	-316.8000	-6.2809
147.2500	-316.8000	-6.2793
147.3506	-316.8000	-6.2783
147.4510	-316.8000	-6.2777
147.5509	-316.8000	-6.2775
147.6518	-316.8000	-6.2788
147.7520	-316.8000	-6.2807
147.8524	-316.8000	-6.2814
147.9523	-316.8000	-6.2805
148.0532	-316.8000	-6.2793
148.1536	-316.8000	-6.2784
148.2548	-316.8000	-6.2780
148.3551	-316.8000	-6.2787
148.4559	-316.8000	-6.2758
148.5559	-316.8000	-6.2775
148.6552	-316.8000	-6.2770
148.7558	-316.8000	-6.2735
148.8555	-316.8000	-6.2775
148.9552	-316.8000	-6.2802
149.0568	-316.8000	-6.2738
149.1578	-316.8000	-6.2761
149.2574	-316.8000	-6.2798
149.3585	-316.8000	-6.2750
149.4600	-316.8000	-6.2792
149.5608	-316.8000	-6.2782
149.6607	-316.8000	-6.2775
149.7611	-316.8000	-6.2755
149.8625	-316.8000	-6.2827
149.9627	-316.8000	-6.2784
150.0625	-316.8000	-6.2820
150.1632	-316.8000	-6.2779
150.2647	-316.8000	-6.2779
150.3647	-316.8000	-6.2801
150.4648	-316.8000	-6.2787
150.5644	-316.8000	-6.2806
150.6651	-316.8000	-6.2779
150.7659	-316.8000	-6.2773
150.8652	-316.8000	-6.2784
150.9660	-316.8000	-6.2775
151.0668	-316.8000	-6.2752
151.1667	-316.8000	-6.2743
151.2669	-316.8000	-6.2753
151.3668	-316.8000	-6.2765
151.4666	-316.8000	-6.2748
151.5671	-316.8000	-6.2744
151.6688	-316.8000	-6.2772
151.7700	-316.8000	-6.2764
151.8694	-316.8000	-6.2747
151.9701	-316.8000	-6.2764
152.0715	-316.8000	-6.2749
152.1718	-316.8000	-6.2742
152.2720	-316.8000	-6.2749
152.3721	-316.8000	-6.2734
152.4736	-316.8000	-6.2755
152.5739	-316.8000	-6.2742
152.6742	-316.8000	-6.2734
152.7741	-316.8000	-6.2777
152.8757	-316.8000	-6.2813
152.9755	-316.8000	-6.2768
153.0752	-316.8000	-6.2785
153.1757	-316.8000	-6.2768
153.2762	-316.8000	-6.2775
153.3766	-316.8000	-6.2775
153.4766	-316.8000	-6.2777
153.5779	-316.8000	-6.2771
153.6774	-316.8000	-6.2783
153.7775	-316.8000	-6.2748
153.8773	-316.8000	-6.2802
153.9774	-316.8000	-6.2794
154.0774	-316.8000	-6.2765
154.1774	-316.8000	-6.2802
154.2780	-316.8000	-6.2744
154.3773	-316.8000	-6.2769
154.4774	-316.8000	-6.2780
154.5775	-316.8000	-6.2806
154.6775	-316.8000	-6.2751
154.7775	-316.8000	-6.2794
154.8774	-316.8000	-6.2791
154.9774	-316.8000	-6.2797
155.0774	-316.8000	-6.2775
155.1774	-316.8000	-6.2813
155.2786	-316.8000	-6.2789
155.3782	-316.8000	-6.2794
155.4784	-316.8000	-6.2808
155.5796	-316.8000	-6.2787
155.6808	-316.8000	-6.2783
155.7803	-316.8000	-6.2748
155.8809	-316.8000	-6.2760
155.9806	-316.8000	-6.2747
156.0805	-316.8000	-6.2740
156.1807	-316.8000	-6.2762
156.2807	-316.8000	-6.2722
156.3810	-316.8000	-6.2736
156.4813	-316.8000	-6.2713
156.5815	-316.8000	-6.2719
156.6822	-316.8000	-6.2728
156.7832	-316.8000	-6.2739
156.8836	-316.8000	-6.2724
156.9851	-316.8000	-6.2725
157.0843	-316.8000	-6.2722
157.1849	-316.8000	-6.2748
157.2851	-316.8000	-6.2735
157.3847	-316.8000	-6.2747
157.4841	-316.8000	-6.2747
157.5849	-316.8000	-6.2725
157.6848	-316.8000	-6.2746
157.7859	-316.8000	-6.2734
157.8859	-316.8000	-6.2772
157.9857	-316.8000	-6.2737
158.0868	-316.8000	-6.2728
158.1870	-316.8000	-6.2713
158.2879	-316.8000	-6.2727
158.3875	-316.8000	-6.2729
158.4881	-316.8000	-6.2745
158.5901	-316.8000	-6.2726
158.6900	-316.8000	-6.2759
158.7899	-316.8000	-6.2742
158.8910	-316.8000	-6.2729
158.9906	-316.8000	-6.2716
159.0907	-316.8000	-6.2712
159.1906	-316.8000	-6.2731
159.2908	-316.8000	-6.2707
159.3919	-316.8000	-6.2735
159.4921	-316.8000	-6.2733
159.5915	-316.8000	-6.2718
159.6921	-316.8000	-6.2734
159.7921	-316.8000	-6.2746
159.8914	-316.8000	-6.2729
159.9930	-316.8000	-6.2704
160.0929	-316.8000	-6.2740
160.1930	-316.8000	-6.2732
160.2929	-316.8000	-6.2762
160.3935	-316.8000	-6.2704
160.4936	-316.8000	-6.2712
160.5938	-316.8000	-6.2735
160.6934	-316.8000	-6.2721
160.7938	-316.8000	-6.2746
160.8938	-316.8000	-6.2720
160.9939	-316.8000	-6.2740
161.0935	-316.8000	-6.2720
161.1936	-316.8000	-6.2719
161.2934	-316.8000	-6.2722
161.3951	-316.8000	-6.2747
161.4947	-316.8000	-6.2731
161.5952	-316.8000	-6.2741
161.6969	-316.8000	-6.2731
161.7968	-316.8000	-6.2748
161.8968	-316.8000	-6.2689
161.9965	-316.8000	-6.2716
162.0962	-316.8000	-6.2717
162.1970	-316.8000	-6.2664
162.2965	-316.8000	-6.2701
162.3974	-316.8000	-6.2679
162.4975	-316.8000	-6.2697
162.5976	-316.8000	-6.2708
162.6982	-316.8000	-6.2700
162.7985	-316.8000	-6.2692
162.8998	-316.8000	-6.2714
162.9994	-316.8000	-6.2684
163.0998	-316.8000	-6.2675
163.1995	-316.8000	-6.2680
163.3003	-316.8000	-6.2714
163.4011	-316.8000	-6.2697
163.5011	-316.8000	-6.2690
163.6013	-316.8000	-6.2707
163.7024	-316.8000	-6.2708
163.8029	-316.8000	-6.2663
163.9023	-316.8000	-6.2719
164.0028	-316.8000	-6.2700
164.1040	-316.8000	-6.2724
164.2042	-316.8000	-6.2702
164.3048	-316.8000	-6.2700
164.4044	-316.8000	-6.2725
164.5045	-316.8000	-6.2713
164.6058	-316.8000	-6.2696
164.7071	-316.8000	-6.2677
164.8063	-316.8000	-6.2680
164.9064	-316.8000	-6.2701
165.0073	-316.8000	-6.2712
165.1075	-316.8000	-6.2687
165.2075	-316.8000	-6.2681
165.3083	-316.8000	-6.2667
165.4089	-316.8000	-6.2678
165.5089	-316.8000	-6.2715
165.6099	-316.8000	-6.2701
165.7109	-316.8000	-6.2694
165.8119	-316.8000	-6.2668
165.9118	-316.8000	-6.2663
166.0116	-316.8000	-6.2690
166.1130	-316.8000	-6.2696
166.2127	-316.8000	-6.2672
166.3124	-316.8000	-6.2656
166.4125	-316.8000	-6.2697
166.5122	-316.8000	-6.2679
166.6129	-316.8000	-6.2669
166.7136	-316.8000	-6.2697
166.8151	-316.8000	-6.2676
166.9145	-316.8000	-6.2686
167.0148	-316.8000	-6.2692
167.1158	-316.8000	-6.2673
167.2152	-316.8000	-6.2675
167.3154	-316.8000	-6.2705
167.4159	-316.8000	-6.2712
167.5153	-316.8000	-6.2696
167.6170	-316.8000	-6.2670
167.7169	-316.8000	-6.2703
167.8180	-316.8000	-6.2701
167.9188	-316.8000	-6.2679
168.0184	-316.8000	-6.2664
168.1184	-316.8000	-6.2641
168.2201	-316.8000	-6.2668
168.3197	-316.8000	-6.2676
168.4196	-316.8000	-6.2670
168.5199	-316.8000	-6.2684
168.6209	-316.8000	-6.2681
168.7204	-316.8000	-6.2679
168.8211	-316.8000	-6.2668
168.9217	-316.8000	-6.2688
169.0214	-316.8000	-6.2712
169.1224	-316.8000	-6.2663
169.2225	-316.8000	-6.2665
169.3239	-316.8000	-6.2661
169.4239	-316.8000	-6.2649
169.5242	-316.8000	-6.2649
169.6252	-316.8000	-6.2654
169.7252	-316.8000	-6.2656
169.8250	-316.8000	-6.2670
169.9250	-316.8000	-6.2677
170.0249	-316.8000	-6.2672
170.1243	-316.8000	-6.2640
170.2252	-316.8000	-6.2629
170.3269	-316.8000	-6.2606
170.4271	-316.8000	-6.2656
170.5270	-316.8000	-6.2658
170.6280	-316.8000	-6.2638
170.7276	-316.8000	-6.2654
170.8290	-316.8000	-6.2640
170.9289	-316.8000	-6.2616
171.0283	-316.8000	-6.2663
171.1294	-316.8000	-6.2684
171.2299	-316.8000	-6.2689
171.3300	-316.8000	-6.2659
171.4300	-316.8000	-6.2633
171.5300	-316.8000	-6.2664
171.6300	-316.8000	-6.2601
171.7296	-316.8000	-6.2641
171.8301	-316.8000	-6.2633
171.9298	-316.8000	-6.2666
172.0296	-316.8000	-6.2662
172.1299	-316.8000	-6.2611
172.2298	-316.8000	-6.2621
172.3296	-316.8000	-6.2631
172.4300	-316.8000	-6.2609
172.5303	-316.8000	-6.2615
172.6312	-316.8000	-6.2601
172.7303	-316.8000	-6.2621
172.8310	-316.8000	-6.2623
172.9312	-316.8000	-6.2641
173.0308	-316.8000	-6.2624
173.1311	-316.8000	-6.2593
173.2320	-316.8000	-6.2612
173.3314	-316.8000	-6.2628
173.4315	-316.8000	-6.2663
173.5330	-316.8000	-6.2628
173.6332	-316.8000	-6.2653
173.7323	-316.8000	-6.2639
173.8328	-316.8000	-6.2627
173.9330	-316.8000	-6.2570
174.0330	-316.8000	-6.2580
174.1334	-316.8000	-6.2585
174.2345	-316.8000	-6.2607
174.3354	-316.8000	-6.2646
174.4362	-316.8000	-6.2643
174.5370	-316.8000	-6.2668
174.6377	-316.8000	-6.2664
174.7375	-316.8000	-6.2609
174.8381	-316.8000	-6.2635
174.9388	-316.8000	-6.2581
175.0394	-316.8000	-6.2630
175.1400	-316.8000	-6.2635
175.2405	-316.8000	-6.2613
175.3405	-316.8000	-6.2637
175.4406	-316.8000	-6.2603
175.5409	-316.8000	-6.2656
175.6403	-316.8000	-6.2617
175.7407	-316.8000	-6.2638
175.8404	-316.8000	-6.2591
175.9404	-316.8000	-6.2577
176.0419	-316.8000	-6.2606
176.1430	-316.8000	-6.2627
176.2433	-316.8000	-6.2592
176.3431	-316.8000	-6.2571
176.4431	-316.8000	-6.2590
176.5435	-316.8000	-6.2572
176.6445	-316.8000	-6.2623
176.7450	-316.8000	-6.2639
176.8449	-316.8000	-6.2618
176.9453	-316.8000	-6.2647
177.0452	-316.8000	-6.2629
177.1447	-316.8000	-6.2664
177.2443	-316.8000	-6.2608
177.3452	-316.8000	-6.2624
177.4444	-316.8000	-6.2604
177.5463	-316.8000	-6.2609
177.6459	-316.8000	-6.2573
177.7455	-316.8000	-6.2597
177.8463	-316.8000	-6.2586
177.9457	-316.8000	-6.2599
178.0465	-316.8000	-6.2596
178.1477	-316.8000	-6.2585
178.2476	-316.8000	-6.2594
178.3475	-316.8000	-6.2617
178.4477	-316.8000	-6.2635
178.5476	-316.8000	-6.2636
178.6477	-316.8000	-6.2604
178.7477	-316.8000	-6.2608
178.8474	-316.8000	-6.2580
178.9477	-316.8000	-6.2613
179.0477	-316.8000	-6.2589
179.1477	-316.8000	-6.2611
179.2479	-316.8000	-6.2590
179.3477	-316.8000	-6.2609
179.4476	-316.8000	-6.2623
179.5477	-316.8000	-6.2584
179.6477	-316.8000	-6.2578
179.7483	-316.8000	-6.2595
179.8478	-316.8000	-6.2620
179.9477	-316.8000	-6.2602
180.0477	-316.8000	-6.2595
180.1477	-316.8000	-6.2623
180.2476	-316.8000	-6.2608
180.3484	-316.8000	-6.2596
180.4484	-316.8000	-6.2598
180.5496	-316.8000	-6.2540
180.6501	-316.8000	-6.2589
180.7510	-316.8000	-6.2627
180.8504	-316.8000	-6.2590
180.9504	-316.8000	-6.2623
181.0520	-316.8000	-6.2583
181.1522	-316.8000	-6.2578
181.2524	-316.8000	-6.2571
181.3529	-316.8000	-6.2646
181.4533	-316.8000	-6.2571
181.5534	-316.8000	-6.2578
181.6543	-316.8000	-6.2587
181.7549	-316.8000	-6.2581
181.8551	-316.8000	-6.2575
181.9552	-316.8000	-6.2576
182.0561	-316.8000	-6.2588
182.1557	-316.8000	-6.2582
182.2562	-316.8000	-6.2589
182.3563	-316.8000	-6.2583
182.4558	-316.8000	-6.2571
182.5554	-316.8000	-6.2575
182.6554	-316.8000	-6.2539
182.7555	-316.8000	-6.2569
182.8561	-316.8000	-6.2559
182.9568	-316.8000	-6.2555
183.0574	-316.8000	-6.2572
183.1576	-316.8000	-6.2590
183.2574	-316.8000	-6.2553
183.3577	-316.8000	-6.2548
183.4577	-316.8000	-6.2535
183.5588	-316.8000	-6.2572
183.6601	-316.8000	-6.2561
183.7598	-316.8000	-6.2602
183.8595	-316.8000	-6.2562
183.9597	-316.8000	-6.2582
184.0599	-316.8000	-6.2534
184.1598	-316.8000	-6.2570
184.2601	-316.8000	-6.2581
184.3600	-316.8000	-6.2544
184.4598	-316.8000	-6.2581
184.5600	-316.8000	-6.2559
184.6599	-316.8000	-6.2557
184.7602	-316.8000	-6.2585
184.8596	-316.8000	-6.2572
184.9598	-316.8000	-6.2579
185.0599	-316.8000	-6.2572
185.1597	-316.8000	-6.2549
185.2598	-316.8000	-6.2567
185.3596	-316.8000	-6.2545
185.4601	-316.8000	-6.2572
185.5598	-316.8000	-6.2558
185.6600	-316.8000	-6.2550
185.7601	-316.8000	-6.2523
185.8612	-316.8000	-6.2580
185.9614	-316.8000	-6.2526
186.0629	-316.8000	-6.2544
186.1641	-316.8000	-6.2556
186.2641	-316.8000	-6.2554
186.3639	-316.8000	-6.2513
186.4641	-316.8000	-6.2573
186.5635	-316.8000	-6.2521
186.6645	-316.8000	-6.2538
186.7648	-316.8000	-6.2548
186.8650	-316.8000	-6.2558
186.9646	-316.8000	-6.2559
187.0653	-316.8000	-6.2577
187.1646	-316.8000	-6.2599
187.2654	-316.8000	-6.2555
187.3653	-316.8000	-6.2556
187.4644	-316.8000	-6.2546
187.5654	-316.8000	-6.2561
187.6671	-316.8000	-6.2543
187.7668	-316.8000	-6.2540
187.8681	-316.8000	-6.2554
187.9678	-316.8000	-6.2561
188.0675	-316.8000	-6.2588
188.1675	-316.8000	-6.2572
188.2676	-316.8000	-6.2567
188.3691	-316.8000	-6.2590
188.4688	-316.8000	-6.2569
188.5703	-316.8000	-6.2587
188.6710	-316.8000	-6.2543
188.7717	-316.8000	-6.2529
188.8728	-316.8000	-6.2562
188.9731	-316.8000	-6.2565
189.0733	-316.8000	-6.2522
189.1735	-316.8000	-6.2518
189.2736	-316.8000	-6.2529
189.3741	-316.8000	-6.2529
189.4743	-316.8000	-6.2501
189.5744	-316.8000	-6.2500
189.6747	-316.8000	-6.2539
189.7751	-316.8000	-6.2522
189.8751	-316.8000	-6.2532
189.9750	-316.8000	-6.2514
190.0761	-316.8000	-6.2510
190.1756	-316.8000	-6.2533
190.2759	-316.8000	-6.2504
190.3761	-316.8000	-6.2512
190.4777	-316.8000	-6.2517
190.5775	-316.8000	-6.2509
190.6776	-316.8000	-6.2543
190.7780	-316.8000	-6.2498
190.8780	-316.8000	-6.2535
190.9792	-316.8000	-6.2553
191.0797	-316.8000	-6.2546
191.1797	-316.8000	-6.2535
191.2807	-316.8000	-6.2539
191.3805	-316.8000	-6.2538
191.4811	-316.8000	-6.2499
191.5811	-316.8000	-6.2506
191.6814	-316.8000	-6.2506
191.7814	-316.8000	-6.2521
191.8823	-316.8000	-6.2527
191.9834	-316.8000	-6.2516
192.0841	-316.8000	-6.2516
192.1842	-316.8000	-6.2492
192.2836	-316.8000	-6.2501
192.3835	-316.8000	-6.2512
192.4841	-316.8000	-6.2488
192.5852	-316.8000	-6.2523
192.6851	-316.8000	-6.2510
192.7849	-316.8000	-6.2514
192.8852	-316.8000	-6.2530
192.9850	-316.8000	-6.2549
193.0849	-316.8000	-6.2526
193.1846	-316.8000	-6.2535
193.2863	-316.8000	-6.2540
193.3856	-316.8000	-6.2521
193.4865	-316.8000	-6.2536
193.5873	-316.8000	-6.2520
193.6868	-316.8000	-6.2512
193.7876	-316.8000	-6.2511
193.8878	-316.8000	-6.2517
193.9878	-316.8000	-6.2509
194.0878	-316.8000	-6.2516
194.1878	-316.8000	-6.2518
194.2878	-316.8000	-6.2524
194.3894	-316.8000	-6.2521
194.4893	-316.8000	-6.2501
194.5891	-316.8000	-6.2500
194.6894	-316.8000	-6.2512
194.7894	-316.8000	-6.2502
194.8897	-316.8000	-6.2489
194.9898	-316.8000	-6.2516
195.0901	-316.8000	-6.2508
195.1899	-316.8000	-6.2507
195.2900	-316.8000	-6.2491
195.3912	-316.8000	-6.2489
195.4921	-316.8000	-6.2501
195.5918	-316.8000	-6.2493
195.6918	-316.8000	-6.2515
195.7923	-316.8000	-6.2528
195.8927	-316.8000	-6.2490
195.9931	-316.8000	-6.2499
196.0933	-316.8000	-6.2509
196.1932	-316.8000	-6.2501
196.2930	-316.8000	-6.2501
196.3930	-316.8000	-6.2522
196.4925	-316.8000	-6.2508
196.5927	-316.8000	-6.2513
196.6931	-316.8000	-6.2480
196.7940	-316.8000	-6.2490
196.8952	-316.8000	-6.2481
196.9955	-316.8000	-6.2465
197.0960	-316.8000	-6.2486
197.1971	-316.8000	-6.2504
197.2972	-316.8000	-6.2504
197.3974	-316.8000	-6.2499
197.4971	-316.8000	-6.2495
197.5988	-316.8000	-6.2504
197.6979	-316.8000	-6.2515
197.7975	-316.8000	-6.2511
197.8981	-316.8000	-6.2527
197.9990	-316.8000	-6.2529
198.0998	-316.8000	-6.2499
198.2011	-316.8000	-6.2502
198.3006	-316.8000	-6.2489
198.4020	-316.8000	-6.2490
198.5017	-316.8000	-6.2510
198.6035	-316.8000	-6.2510
198.7040	-316.8000	-6.2490
198.8035	-316.8000	-6.2475
198.9052	-316.8000	-6.2481
199.0048	-316.8000	-6.2486
199.1046	-316.8000	-6.2481
199.2046	-316.8000	-6.2483
199.3052	-316.8000	-6.2502
199.4047	-316.8000	-6.2489
199.5056	-316.8000	-6.2497
199.6061	-316.8000	-6.2485
199.7072	-316.8000	-6.2498
199.8075	-316.8000	-6.2514
199.9089	-316.8000	-6.2484
200.0103	-316.8000	-6.2500
200.1102	-316.8000	-6.2483
200.2102	-316.8000	-6.2475
200.3100	-316.8000	-6.2461
200.4102	-316.8000	-6.2489
200.5102	-316.8000	-6.2454
200.6101	-316.8000	-6.2458
200.7100	-316.8000	-6.2476
200.8112	-316.8000	-6.2462
200.9124	-316.8000	-6.2470
201.0120	-316.8000	-6.2471
201.1120	-316.8000	-6.2495
201.2127	-316.8000	-6.2502
201.3129	-316.8000	-6.2492
201.4129	-316.8000	-6.2498
201.5135	-316.8000	-6.2494
201.6145	-316.8000	-6.2477
201.7136	-316.8000	-6.2485
201.8139	-316.8000	-6.2507
201.9148	-316.8000	-6.2495
202.0148	-316.8000	-6.2501
202.1151	-316.8000	-6.2506
202.2164	-316.8000	-6.2487
202.3156	-316.8000	-6.2483
202.4159	-316.8000	-6.2489
202.5159	-316.8000	-6.2479
202.6166	-316.8000	-6.2480
202.7177	-316.8000	-6.2458
202.8179	-316.8000	-6.2480
202.9183	-316.8000	-6.2513
203.0193	-316.8000	-6.2489
203.1199	-316.8000	-6.2490
203.2203	-316.8000	-6.2506
203.3202	-316.8000	-6.2498
203.4202	-316.8000	-6.2456
203.5202	-316.8000	-6.2490
203.6207	-316.8000	-6.2475
203.7218	-316.8000	-6.2461
203.8224	-316.8000	-6.2498
203.9234	-316.8000	-6.2469
204.0231	-316.8000	-6.2470
204.1236	-316.8000	-6.2479
204.2241	-316.8000	-6.2470
204.3243	-316.8000	-6.2476
204.4243	-316.8000	-6.2463
204.5243	-316.8000	-6.2481
204.6253	-316.8000	-6.2487
204.7250	-316.8000	-6.2474
204.8247	-316.8000	-6.2472
204.9256	-316.8000	-6.2458
205.0257	-316.8000	-6.2474
205.1265	-316.8000	-6.2511
205.2265	-316.8000	-6.2471
205.3264	-316.8000	-6.2474
205.4267	-316.8000	-6.2461
205.5275	-316.8000	-6.2472
205.6266	-316.8000	-6.2466
205.7282	-316.8000	-6.2447
205.8277	-316.8000	-6.2442
205.9279	-316.8000	-6.2446
206.0284	-316.8000	-6.2465
206.1279	-316.8000	-6.2464
206.2278	-316.8000	-6.2467
206.3293	-316.8000	-6.2443
206.4293	-316.8000	-6.2460
206.5293	-316.8000	-6.2446
206.6294	-316.8000	-6.2452
206.7304	-316.8000	-6.2454
206.8312	-316.8000	-6.2425
206.9323	-316.8000	-6.2421
207.0316	-316.8000	-6.2450
207.1332	-316.8000	-6.2432
207.2335	-316.8000	-6.2460
207.3333	-316.8000	-6.2421
207.4327	-316.8000	-6.2438
207.5333	-316.8000	-6.2421
207.6333	-316.8000	-6.2448
207.7334	-316.8000	-6.2405
207.8333	-316.8000	-6.2458
207.9352	-316.8000	-6.2447
208.0344	-316.8000	-6.2427
208.1343	-316.8000	-6.2439
208.2341	-316.8000	-6.2451
208.3353	-316.8000	-6.2413
208.4346	-316.8000	-6.2445
208.5353	-316.8000	-6.2436
208.6362	-316.8000	-6.2424
208.7357	-316.8000	-6.2448
208.8367	-316.8000	-6.2441
208.9371	-316.8000	-6.2450
209.0382	-316.8000	-6.2440
209.1380	-316.8000	-6.2415
209.2385	-316.8000	-6.2459
209.3393	-316.8000	-6.2461
209.4387	-316.8000	-6.2423
209.5396	-316.8000	-6.2455
209.6401	-316.8000	-6.2454
209.7400	-316.8000	-6.2449
209.8400	-316.8000	-6.2453
209.9398	-316.8000	-6.2456
210.0398	-316.8000	-6.2444
210.1397	-316.8000	-6.2456
210.2402	-316.8000	-6.2468
210.3400	-316.8000	-6.2481
210.4400	-316.8000	-6.2435
210.5399	-316.8000	-6.2438
210.6399	-316.8000	-6.2394
210.7400	-316.8000	-6.2463
210.8400	-316.8000	-6.2428
210.9402	-316.8000	-6.2430
211.0399	-316.8000	-6.2443
211.1403	-316.8000	-6.2431
211.2401	-316.8000	-6.2437
211.3402	-316.8000	-6.2455
211.4402	-316.8000	-6.2451
211.5401	-316.8000	-6.2442
211.6401	-316.8000	-6.2425
211.7397	-316.8000	-6.2439
211.8400	-316.8000	-6.2402
211.9405	-316.8000	-6.2404
212.0404	-316.8000	-6.2417
212.1412	-316.8000	-6.2400
212.2412	-316.8000	-6.2441
212.3415	-316.8000	-6.2467
212.4407	-316.8000	-6.2411
212.5408	-316.8000	-6.2417
212.6409	-316.8000	-6.2439
212.7417	-316.8000	-6.2433
212.8433	-316.8000	-6.2414
212.9437	-316.8000	-6.2346
213.0445	-316.8000	-6.2400
213.1438	-316.8000	-6.2410
213.2447	-316.8000	-6.2419
213.3457	-316.8000	-6.2414
213.4461	-316.8000	-6.2407
213.5472	-316.8000	-6.2435
213.6472	-316.8000	-6.2402
213.7484	-316.8000	-6.2413
213.8480	-316.8000	-6.2423
213.9493	-316.8000	-6.2421
214.0497	-316.8000	-6.2425
214.1502	-316.8000	-6.2430
214.2497	-316.8000	-6.2363
214.3515	-316.8000	-6.2381
214.4507	-316.8000	-6.2425
214.5514	-316.8000	-6.2378
214.6521	-316.8000	-6.2433
214.7534	-316.8000	-6.2437
214.8532	-316.8000	-6.2424
214.9544	-316.8000	-6.2402
215.0550	-316.8000	-6.2406
215.1542	-316.8000	-6.2380
215.2541	-316.8000	-6.2405
215.3541	-316.8000	-6.2417
215.4547	-316.8000	-6.2425
215.5549	-316.8000	-6.2393
215.6553	-316.8000	-6.2397
215.7563	-316.8000	-6.2398
215.8561	-316.8000	-6.2394
215.9561	-316.8000	-6.2421
216.0562	-316.8000	-6.2421
216.1571	-316.8000	-6.2425
216.2585	-316.8000	-6.2421
216.3596	-316.8000	-6.2416
216.4604	-316.8000	-6.2400
216.5611	-316.8000	-6.2439
216.6608	-316.8000	-6.2409
216.7612	-316.8000	-6.2408
216.8615	-316.8000	-6.2393
216.9614	-316.8000	-6.2375
217.0613	-316.8000	-6.2400
217.1609	-316.8000	-6.2376
217.2622	-316.8000	-6.2358
217.3623	-316.8000	-6.2402
217.4623	-316.8000	-6.2393
217.5624	-316.8000	-6.2382
217.6629	-316.8000	-6.2398
217.7631	-316.8000	-6.2404
217.8629	-316.8000	-6.2413
217.9633	-316.8000	-6.2401
218.0629	-316.8000	-6.2397
218.1627	-316.8000	-6.2384
218.2629	-316.8000	-6.2381
218.3632	-316.8000	-6.2366
218.4632	-316.8000	-6.2374
218.5627	-316.8000	-6.2360
218.6631	-316.8000	-6.2380
218.7633	-316.8000	-6.2402
218.8632	-316.8000	-6.2350
218.9636	-316.8000	-6.2367
219.0630	-316.8000	-6.2348
219.1633	-316.8000	-6.2403
219.2627	-316.8000	-6.2370
219.3630	-316.8000	-6.2378
219.4636	-316.8000	-6.2419
219.5644	-316.8000	-6.2389
219.6645	-316.8000	-6.2348
219.7637	-316.8000	-6.2396
219.8647	-316.8000	-6.2362
219.9643	-316.8000	-6.2337
220.0644	-316.8000	-6.2394
220.1648	-316.8000	-6.2391
220.2651	-316.8000	-6.2398
220.3673	-316.8000	-6.2377
220.4665	-316.8000	-6.2359
220.5666	-316.8000	-6.2368
220.6668	-316.8000	-6.2396
220.7678	-316.8000	-6.2377
220.8679	-316.8000	-6.2399
220.9679	-316.8000	-6.2386
221.0683	-316.8000	-6.2414
221.1683	-316.8000	-6.2394
221.2680	-316.8000	-6.2394
221.3681	-316.8000	-6.2406
221.4693	-316.8000	-6.2387
221.5687	-316.8000	-6.2415
221.6695	-316.8000	-6.2378
221.7694	-316.8000	-6.2385
221.8704	-316.8000	-6.2350
221.9705	-316.8000	-6.2389
222.0699	-316.8000	-6.2404
222.1714	-316.8000	-6.2370
222.2716	-316.8000	-6.2379
222.3714	-316.8000	-6.2387
222.4711	-316.8000	-6.2387
222.5723	-316.8000	-6.2400
222.6722	-316.8000	-6.2354
222.7725	-316.8000	-6.2384
222.8722	-316.8000	-6.2378
222.9723	-316.8000	-6.2373
223.0721	-316.8000	-6.2344
223.1726	-316.8000	-6.2373
223.2732	-316.8000	-6.2370
223.3745	-316.8000	-6.2372
223.4739	-316.8000	-6.2366
223.5745	-316.8000	-6.2397
223.6751	-316.8000	-6.2403
223.7755	-316.8000	-6.2369
223.8752	-316.8000	-6.2378
223.9754	-316.8000	-6.2392
224.0762	-316.8000	-6.2381
224.1774	-316.8000	-6.2372
224.2774	-316.8000	-6.2377
224.3774	-316.8000	-6.2367
224.4769	-316.8000	-6.2380
224.5768	-316.8000	-6.2341
224.6773	-316.8000	-6.2335
224.7773	-316.8000	-6.2356
224.8772	-316.8000	-6.2331
224.9768	-316.8000	-6.2340
225.0775	-316.8000	-6.2356
225.1782	-316.8000	-6.2321
225.2780	-316.8000	-6.2354
225.3788	-316.8000	-6.2360
225.4795	-316.8000	-6.2334
225.5795	-316.8000	-6.2332
225.6795	-316.8000	-6.2351
225.7789	-316.8000	-6.2372
225.8801	-316.8000	-6.2351
225.9805	-316.8000	-6.2338
226.0804	-316.8000	-6.2388
226.1803	-316.8000	-6.2346
226.2812	-316.8000	-6.2376
226.3817	-316.8000	-6.2338
226.4808	-316.8000	-6.2376
226.5817	-316.8000	-6.2377
226.6826	-316.8000	-6.2400
226.7826	-316.8000	-6.2391
226.8827	-316.8000	-6.2382
226.9828	-316.8000	-6.2382
227.0833	-316.8000	-6.2352
227.1834	-316.8000	-6.2353
227.2840	-316.8000	-6.2396
227.3842	-316.8000	-6.2346
227.4855	-316.8000	-6.2334
227.5854	-316.8000	-6.2362
227.6857	-316.8000	-6.2320
227.7857	-316.8000	-6.2384
227.8849	-316.8000	-6.2351
227.9854	-316.8000	-6.2378
228.0856	-316.8000	-6.2344
228.1859	-316.8000	-6.2324
228.2863	-316.8000	-6.2353
228.3866	-316.8000	-6.2355
228.4866	-316.8000	-6.2344
228.5861	-316.8000	-6.2334
228.6873	-316.8000	-6.2375
228.7865	-316.8000	-6.2373
228.8865	-316.8000	-6.2378
228.9866	-316.8000	-6.2364
229.0874	-316.8000	-6.2360
229.1875	-316.8000	-6.2358
229.2884	-316.8000	-6.2325
229.3904	-316.8000	-6.2352
229.4905	-316.8000	-6.2368
229.5903	-316.8000	-6.2336
229.6900	-316.8000	-6.2373
229.7913	-316.8000	-6.2362
229.8904	-316.8000	-6.2337
229.9903	-316.8000	-6.2345
230.0915	-316.8000	-6.2337
230.1923	-316.8000	-6.2372
230.2919	-316.8000	-6.2333
230.3919	-316.8000	-6.2330
230.4933	-316.8000	-6.2364
230.5935	-316.8000	-6.2357
230.6934	-316.8000	-6.2354
230.7937	-316.8000	-6.2352
230.8936	-316.8000	-6.2382
230.9931	-316.8000	-6.2342
231.0936	-316.8000	-6.2343
231.1929	-316.8000	-6.2365
231.2930	-316.8000	-6.2336
231.3938	-316.8000	-6.2331
231.4941	-316.8000	-6.2328
231.5943	-316.8000	-6.2356
231.6942	-316.8000	-6.2332
231.7946	-316.8000	-6.2357
231.8945	-316.8000	-6.2354
231.9943	-316.8000	-6.2358
232.0947	-316.8000	-6.2399
232.1939	-316.8000	-6.2343
232.2952	-316.8000	-6.2359
232.3952	-316.8000	-6.2346
232.4956	-316.8000	-6.2339
232.5953	-316.8000	-6.2361
232.6956	-316.8000	-6.2348
232.7956	-316.8000	-6.2346
232.8958	-316.8000	-6.2358
232.9973	-316.8000	-6.2336
233.0978	-316.8000	-6.2318
233.1982	-316.8000	-6.2309
233.2981	-316.8000	-6.2302
233.3988	-316.8000	-6.2353
233.4981	-316.8000	-6.2323
233.5981	-316.8000	-6.2313
233.6982	-316.8000	-6.2321
233.7988	-316.8000	-6.2341
233.8981	-316.8000	-6.2306
233.9979	-316.8000	-6.2328
234.0985	-316.8000	-6.2306
234.1981	-316.8000	-6.2311
234.2981	-316.8000	-6.2353
234.3982	-316.8000	-6.2337
234.4986	-316.8000	-6.2318
234.5982	-316.8000	-6.2311
234.6981	-316.8000	-6.2318
234.7982	-316.8000	-6.2315
234.8985	-316.8000	-6.2331
234.9981	-316.8000	-6.2315
235.0984	-316.8000	-6.2357
235.1994	-316.8000	-6.2312
235.3004	-316.8000	-6.2318
235.4004	-316.8000	-6.2306
235.5010	-316.8000	-6.2311
235.6010	-316.8000	-6.2285
235.7017	-316.8000	-6.2344
235.8014	-316.8000	-6.2322
235.9024	-316.8000	-6.2342
236.0019	-316.8000	-6.2307
236.1033	-316.8000	-6.2309
236.2031	-316.8000	-6.2326
236.3029	-316.8000	-6.2306
236.4043	-316.8000	-6.2305
236.5055	-316.8000	-6.2315
236.6054	-316.8000	-6.2294
236.7056	-316.8000	-6.2306
236.8055	-316.8000	-6.2316
236.9068	-316.8000	-6.2335
237.0059	-316.8000	-6.2291
237.1068	-316.8000	-6.2312
237.2061	-316.8000	-6.2282
237.3072	-316.8000	-6.2321
237.4079	-316.8000	-6.2286
237.5089	-316.8000	-6.2323
237.6105	-316.8000	-6.2345
237.7106	-316.8000	-6.2336
237.8106	-316.8000	-6.2329
237.9101	-316.8000	-6.2312
238.0113	-316.8000	-6.2325
238.1113	-316.8000	-6.2344
238.2118	-316.8000	-6.2309
238.3124	-316.8000	-6.2281
238.4140	-316.8000	-6.2328
238.5134	-316.8000	-6.2292
238.6133	-316.8000	-6.2318
238.7132	-316.8000	-6.2314
238.8134	-316.8000	-6.2321
238.9135	-316.8000	-6.2275
239.0135	-316.8000	-6.2301
239.1133	-316.8000	-6.2313
239.2134	-316.8000	-6.2266
239.3134	-316.8000	-6.2300
239.4129	-316.8000	-6.2271
239.5131	-316.8000	-6.2274
239.6130	-316.8000	-6.2307
239.7129	-316.8000	-6.2305
239.8137	-316.8000	-6.2260
239.9131	-316.8000	-6.2322
240.0133	-316.8000	-6.2317
240.1134	-316.8000	-6.2303
240.2136	-316.8000	-6.2313
240.3134	-316.8000	-6.2317
240.4141	-316.8000	-6.2274
240.5147	-316.8000	-6.2293
240.6147	-316.8000	-6.2299
240.7149	-316.8000	-6.2307
240.8153	-316.8000	-6.2236
240.9150	-316.8000	-6.2293
241.0168	-316.8000	-6.2263
241.1160	-316.8000	-6.2255
241.2175	-316.8000	-6.2311
241.3172	-316.8000	-6.2274
241.4170	-316.8000	-6.2339
241.5177	-316.8000	-6.2298
241.6174	-316.8000	-6.2341
241.7172	-316.8000	-6.2323
241.8169	-316.8000	-6.2326
241.9176	-316.8000	-6.2360
242.0169	-316.8000	-6.2312
242.1176	-316.8000	-6.2312
242.2171	-316.8000	-6.2346
242.3170	-316.8000	-6.2269
242.4178	-316.8000	-6.2246
242.5175	-316.8000	-6.2300
242.6185	-316.8000	-6.2259
242.7186	-316.8000	-6.2250
242.8183	-316.8000	-6.2252
242.9182	-316.8000	-6.2246
243.0202	-316.8000	-6.2268
243.1194	-316.8000	-6.2225
243.2196	-316.8000	-6.2292
243.3195	-316.8000	-6.2265
243.4205	-316.8000	-6.2279
243.5204	-316.8000	-6.2275
243.6201	-316.8000	-6.2264
243.7201	-316.8000	-6.2267
243.8203	-316.8000	-6.2254
243.9204	-316.8000	-6.2268
244.0205	-316.8000	-6.2297
244.1204	-316.8000	-6.2275
244.2204	-316.8000	-6.2295
244.3203	-316.8000	-6.2290
244.4207	-316.8000	-6.2282
244.5205	-316.8000	-6.2275
244.6207	-316.8000	-6.2257
244.7199	-316.8000	-6.2290
244.8203	-316.8000	-6.2308
244.9215	-316.8000	-6.2248
245.0219	-316.8000	-6.2256
245.1221	-316.8000	-6.2300
245.2224	-316.8000	-6.2288
245.3221	-316.8000	-6.2296
245.4229	-316.8000	-6.2296
245.5230	-316.8000	-6.2279
245.6235	-316.8000	-6.2277
245.7240	-316.8000	-6.2268
245.8251	-316.8000	-6.2273
245.9250	-316.8000	-6.2272
246.0254	-316.8000	-6.2288
246.1251	-316.8000	-6.2251
246.2258	-316.8000	-6.2257
246.3255	-316.8000	-6.2260
246.4253	-316.8000	-6.2262
246.5260	-316.8000	-6.2232
246.6263	-316.8000	-6.2257
246.7260	-316.8000	-6.2279
246.8259	-316.8000	-6.2259
246.9269	-316.8000	-6.2268
247.0268	-316.8000	-6.2276
247.1265	-316.8000	-6.2286
247.2269	-316.8000	-6.2288
247.3269	-316.8000	-6.2275
247.4267	-316.8000	-6.2262
247.5268	-316.8000	-6.2283
247.6266	-316.8000	-6.2263
247.7277	-316.8000	-6.2264
247.8277	-316.8000	-6.2270
247.9278	-316.8000	-6.2255
248.0277	-316.8000	-6.2264
248.1275	-316.8000	-6.2290
248.2279	-316.8000	-6.2252
248.3283	-316.8000	-6.2254
248.4281	-316.8000	-6.2263
248.5285	-316.8000	-6.2236
248.6282	-316.8000	-6.2266
248.7297	-316.8000	-6.2268
248.8307	-316.8000	-6.2278
248.9300	-316.8000	-6.2260
249.0309	-316.8000	-6.2285
249.1316	-316.8000	-6.2252
249.2314	-316.8000	-6.2262
249.3318	-316.8000	-6.2280
249.4315	-316.8000	-6.2274
249.5316	-316.8000	-6.2284
249.6318	-316.8000	-6.2286
249.7319	-316.8000	-6.2285
249.8325	-316.8000	-6.2271
249.9328	-316.8000	-6.2297
250.0329	-316.8000	-6.2308
250.1330	-316.8000	-6.2293
250.2348	-316.8000	-6.2293
250.3346	-316.8000	-6.2269
250.4341	-316.8000	-6.2267
250.5349	-316.8000	-6.2267
250.6342	-316.8000	-6.2260
250.7346	-316.8000	-6.2264
250.8350	-316.8000	-6.2250
250.9357	-316.8000	-6.2267
251.0366	-316.8000	-6.2234
251.1370	-316.8000	-6.2273
251.2387	-316.8000	-6.2260
251.3395	-316.8000	-6.2239
251.4392	-316.8000	-6.2282
251.5398	-316.8000	-6.2242
251.6396	-316.8000	-6.2227
251.7395	-316.8000	-6.2247
251.8410	-316.8000	-6.2257
251.9414	-316.8000	-6.2236
252.0416	-316.8000	-6.2283
252.1417	-316.8000	-6.2244
252.2421	-316.8000	-6.2260
252.3435	-316.8000	-6.2254
252.4441	-316.8000	-6.2250
252.5451	-316.8000	-6.2249
252.6452	-316.8000	-6.2243
252.7454	-316.8000	-6.2267
252.8451	-316.8000	-6.2229
252.9469	-316.8000	-6.2241
253.0466	-316.8000	-6.2234
253.1464	-316.8000	-6.2220
253.2461	-316.8000	-6.2260
253.3468	-316.8000	-6.2233
253.4464	-316.8000	-6.2267
253.5465	-316.8000	-6.2248
253.6464	-316.8000	-6.2259
253.7465	-316.8000	-6.2231
253.8470	-316.8000	-6.2211
253.9482	-316.8000	-6.2223
254.0487	-316.8000	-6.2209
254.1483	-316.8000	-6.2280
254.2483	-316.8000	-6.2264
254.3484	-316.8000	-6.2234
254.4483	-316.8000	-6.2238
254.5483	-316.8000	-6.2240
254.6485	-316.8000	-6.2269
254.7483	-316.8000	-6.2269
254.8484	-316.8000	-6.2260
254.9484	-316.8000	-6.2303
255.0483	-316.8000	-6.2251
255.1483	-316.8000	-6.2268
255.2483	-316.8000	-6.2222
255.3484	-316.8000	-6.2281
255.4484	-316.8000	-6.2251
255.5483	-316.8000	-6.2252
255.6483	-316.8000	-6.2210
255.7483	-316.8000	-6.2269
255.8489	-316.8000	-6.2252
255.9498	-316.8000	-6.2257
256.0492	-316.8000	-6.2280
256.1496	-316.8000	-6.2276
256.2495	-316.8000	-6.2242
256.3497	-316.8000	-6.2235
256.4495	-316.8000	-6.2245
256.5504	-316.8000	-6.2240
256.6502	-316.8000	-6.2228
256.7504	-316.8000	-6.2245
256.8504	-316.8000	-6.2232
256.9513	-316.8000	-6.2256
257.0525	-316.8000	-6.2264
257.1531	-316.8000	-6.2210
257.2533	-316.8000	-6.2285
257.3535	-316.8000	-6.2236
257.4548	-316.8000	-6.2209
257.5550	-316.8000	-6.2234
257.6549	-316.8000	-6.2247
257.7546	-316.8000	-6.2248
257.8545	-316.8000	-6.2210
257.9549	-316.8000	-6.2211
258.0546	-316.8000	-6.2224
258.1555	-316.8000	-6.2221
258.2567	-316.8000	-6.2244
258.3565	-316.8000	-6.2188
258.4565	-316.8000	-6.2261
258.5568	-316.8000	-6.2240
258.6567	-316.8000	-6.2237
258.7562	-316.8000	-6.2254
258.8570	-316.8000	-6.2207
258.9562	-316.8000	-6.2223
259.0568	-316.8000	-6.2228
259.1563	-316.8000	-6.2240
259.2567	-316.8000	-6.2224
259.3576	-316.8000	-6.2202
259.4571	-316.8000	-6.2218
259.5576	-316.8000	-6.2223
259.6585	-316.8000	-6.2232
259.7591	-316.8000	-6.2213
259.8592	-316.8000	-6.2230
259.9596	-316.8000	-6.2225
260.0606	-316.8000	-6.2241
260.1607	-316.8000	-6.2248
260.2605	-316.8000	-6.2182
260.3606	-316.8000	-6.2187
260.4604	-316.8000	-6.2236
260.5601	-316.8000	-6.2249
260.6608	-316.8000	-6.2242
260.7608	-316.8000	-6.2209
260.8607	-316.8000	-6.2242
260.9602	-316.8000	-6.2210
261.0618	-316.8000	-6.2223
261.1620	-316.8000	-6.2215
261.2622	-316.8000	-6.2204
261.3623	-316.8000	-6.2221
261.4629	-316.8000	-6.2221
261.5630	-316.8000	-6.2214
261.6631	-316.8000	-6.2222
261.7642	-316.8000	-6.2157
261.8641	-316.8000	-6.2179
261.9643	-316.8000	-6.2195
262.0644	-316.8000	-6.2207
262.1641	-316.8000	-6.2218
262.2648	-316.8000	-6.2207
262.3643	-316.8000	-6.2237
262.4656	-316.8000	-6.2223
262.5660	-316.8000	-6.2237
262.6662	-316.8000	-6.2205
262.7672	-316.8000	-6.2183
262.8681	-316.8000	-6.2196
262.9684	-316.8000	-6.2224
263.0685	-316.8000	-6.2194
263.1686	-316.8000	-6.2183
263.2685	-316.8000	-6.2190
263.3685	-316.8000	-6.2193
263.4688	-316.8000	-6.2173
263.5686	-316.8000	-6.2183
263.6685	-316.8000	-6.2166
263.7685	-316.8000	-6.2140
263.8683	-316.8000	-6.2142
263.9681	-316.8000	-6.2178
264.0691	-316.8000	-6.2194
264.1687	-316.8000	-6.2242
264.2707	-316.8000	-6.2181
264.3708	-316.8000	-6.2205
264.4706	-316.8000	-6.2224
264.5705	-316.8000	-6.2251
264.6706	-316.8000	-6.2147
264.7708	-316.8000	-6.2155
264.8703	-316.8000	-6.2195
264.9708	-316.8000	-6.2145
265.0704	-316.8000	-6.2196
265.1709	-316.8000	-6.2231
265.2718	-316.8000	-6.2153
265.3729	-316.8000	-6.2161
265.4724	-316.8000	-6.2175
265.5726	-316.8000	-6.2194
265.6726	-316.8000	-6.2182
265.7728	-316.8000	-6.2195
265.8729	-316.8000	-6.2185
265.9731	-316.8000	-6.2189
266.0722	-316.8000	-6.2169
266.1724	-316.8000	-6.2178
266.2732	-316.8000	-6.2187
266.3735	-316.8000	-6.2226
266.4746	-316.8000	-6.2182
266.5744	-316.8000	-6.2152
266.6744	-316.8000	-6.2183
266.7746	-316.8000	-6.2192
266.8746	-316.8000	-6.2182
266.9749	-316.8000	-6.2159
267.0741	-316.8000	-6.2162
267.1751	-316.8000	-6.2174
267.2752	-316.8000	-6.2183
267.3754	-316.8000	-6.2180
267.4758	-316.8000	-6.2160
267.5770	-316.8000	-6.2126
267.6768	-316.8000	-6.2156
267.7767	-316.8000	-6.2154
267.8766	-316.8000	-6.2177
267.9772	-316.8000	-6.2120
268.0783	-316.8000	-6.2183
268.1784	-316.8000	-6.2191
268.2791	-316.8000	-6.2162
268.3785	-316.8000	-6.2178
268.4785	-316.8000	-6.2125
268.5785	-316.8000	-6.2162
268.6785	-316.8000	-6.2200
268.7785	-316.8000	-6.2187
268.8785	-316.8000	-6.2176
268.9783	-316.8000	-6.2147
269.0785	-316.8000	-6.2196
269.1797	-316.8000	-6.2171
269.2810	-316.8000	-6.2130
269.3812	-316.8000	-6.2167
269.4815	-316.8000	-6.2150
269.5818	-316.8000	-6.2154
269.6819	-316.8000	-6.2141
269.7829	-316.8000	-6.2142
269.8832	-316.8000	-6.2177
269.9839	-316.8000	-6.2174
270.0836	-316.8000	-6.2134
270.1832	-316.8000	-6.2182
270.2850	-316.8000	-6.2179
270.3846	-316.8000	-6.2165
270.4854	-316.8000	-6.2194
270.5858	-316.8000	-6.2131
270.6856	-316.8000	-6.2172
270.7859	-316.8000	-6.2133
270.8855	-316.8000	-6.2159
270.9868	-316.8000	-6.2147
271.0867	-316.8000	-6.2140
271.1873	-316.8000	-6.2154
271.2877	-316.8000	-6.2200
271.3887	-316.8000	-6.2199
271.4898	-316.8000	-6.2152
271.5906	-316.8000	-6.2163
271.6918	-316.8000	-6.2171
271.7922	-316.8000	-6.2155
271.8931	-316.8000	-6.2165
271.9937	-316.8000	-6.2173
272.0939	-316.8000	-6.2194
272.1942	-316.8000	-6.2182
272.2952	-316.8000	-6.2155
272.3955	-316.8000	-6.2132
272.4969	-316.8000	-6.2224
272.5970	-316.8000	-6.2190
272.6966	-316.8000	-6.2166
272.7965	-316.8000	-6.2151
272.8977	-316.8000	-6.2166
272.9987	-316.8000	-6.2137
273.0998	-316.8000	-6.2157
273.1996	-316.8000	-6.2166
273.3002	-316.8000	-6.2184
273.4007	-316.8000	-6.2142
273.5008	-316.8000	-6.2152
273.6002	-316.8000	-6.2180
273.7008	-316.8000	-6.2169
273.8007	-316.8000	-6.2167
273.9011	-316.8000	-6.2175
274.0007	-316.8000	-6.2176
274.1007	-316.8000	-6.2162
274.2007	-316.8000	-6.2137
274.3005	-316.8000	-6.2139
274.4007	-316.8000	-6.2148
274.5008	-316.8000	-6.2108
274.6008	-316.8000	-6.2166
274.7009	-316.8000	-6.2166
274.8002	-316.8000	-6.2182
274.9007	-316.8000	-6.2133
275.0004	-316.8000	-6.2138
275.1009	-316.8000	-6.2132
275.2005	-316.8000	-6.2136
275.3008	-316.8000	-6.2162
275.4009	-316.8000	-6.2175
275.5009	-316.8000	-6.2153
275.6009	-316.8000	-6.2146
275.7006	-316.8000	-6.2156
275.8010	-316.8000	-6.2164
275.9014	-316.8000	-6.2152
276.0022	-316.8000	-6.2117
276.1013	-316.8000	-6.2157
276.2024	-316.8000	-6.2147
276.3023	-316.8000	-6.2126
276.4024	-316.8000	-6.2168
276.5029	-316.8000	-6.2140
276.6033	-316.8000	-6.2154
276.7040	-316.8000	-6.2164
276.8039	-316.8000	-6.2152
276.9033	-316.8000	-6.2193
277.0036	-316.8000	-6.2160
277.1045	-316.8000	-6.2133
277.2046	-316.8000	-6.2168
277.3048	-316.8000	-6.2119
277.4051	-316.8000	-6.2159
277.5059	-316.8000	-6.2146
277.6053	-316.8000	-6.2106
277.7054	-316.8000	-6.2109
277.8054	-316.8000	-6.2126
277.9053	-316.8000	-6.2124
278.0068	-316.8000	-6.2108
278.1064	-316.8000	-6.2152
278.2064	-316.8000	-6.2141
278.3064	-316.8000	-6.2105
278.4070	-316.8000	-6.2136
278.5080	-316.8000	-6.2117
278.6083	-316.8000	-6.2148
278.7086	-316.8000	-6.2176
278.8092	-316.8000	-6.2131
278.9085	-316.8000	-6.2122
279.0086	-316.8000	-6.2143
279.1085	-316.8000	-6.2115
279.2102	-316.8000	-6.2093
279.3095	-316.8000	-6.2132
279.4099	-316.8000	-6.2119
279.5099	-316.8000	-6.2139
279.6097	-316.8000	-6.2160
279.7100	-316.8000	-6.2124
279.8102	-316.8000	-6.2130
279.9097	-316.8000	-6.2122
280.0099	-316.8000	-6.2083
280.1095	-316.8000	-6.2081
280.2103	-316.8000	-6.2081
280.3106	-316.8000	-6.2133
280.4111	-316.8000	-6.2164
280.5110	-316.8000	-6.2097
280.6108	-316.8000	-6.2140
280.7105	-316.8000	-6.2145
280.8119	-316.8000	-6.2109
280.9121	-316.8000	-6.2164
281.0120	-316.8000	-6.2108
281.1127	-316.8000	-6.2131
281.2125	-316.8000	-6.2133
281.3133	-316.8000	-6.2070
281.4139	-316.8000	-6.2108
281.5146	-316.8000	-6.2119
281.6148	-316.8000	-6.2074
281.7153	-316.8000	-6.2072
281.8155	-316.8000	-6.2130
281.9155	-316.8000	-6.2124
282.0161	-316.8000	-6.2111
282.1162	-316.8000	-6.2106
282.2156	-316.8000	-6.2153
282.3153	-316.8000	-6.2146
282.4153	-316.8000	-6.2113
282.5160	-316.8000	-6.2147
282.6157	-316.8000	-6.2127
282.7160	-316.8000	-6.2106
282.8153	-316.8000	-6.2134
282.9160	-316.8000	-6.2171
283.0160	-316.8000	-6.2110
283.1159	-316.8000	-6.2144
283.2162	-316.8000	-6.2131
283.3158	-316.8000	-6.2143
283.4153	-316.8000	-6.2160
283.5155	-316.8000	-6.2140
283.6171	-316.8000	-6.2121
283.7167	-316.8000	-6.2139
283.8171	-316.8000	-6.2158
283.9172	-316.8000	-6.2119
284.0165	-316.8000	-6.2152
284.1168	-316.8000	-6.2125
284.2166	-316.8000	-6.2129
284.3168	-316.8000	-6.2113
284.4169	-316.8000	-6.2103
284.5171	-316.8000	-6.2123
284.6180	-316.8000	-6.2104
284.7184	-316.8000	-6.2176
284.8186	-316.8000	-6.2130
284.9186	-316.8000	-6.2124
285.0197	-316.8000	-6.2105
285.1194	-316.8000	-6.2151
285.2193	-316.8000	-6.2106
285.3211	-316.8000	-6.2124
285.4210	-316.8000	-6.2161
285.5207	-316.8000	-6.2129
285.6209	-316.8000	-6.2091
285.7210	-316.8000	-6.2126
285.8226	-316.8000	-6.2088
285.9241	-316.8000	-6.2110
286.0233	-316.8000	-6.2091
286.1248	-316.8000	-6.2127
286.2251	-316.8000	-6.2120
286.3260	-316.8000	-6.2124
286.4271	-316.8000	-6.2115
286.5276	-316.8000	-6.2089
286.6283	-316.8000	-6.2092
286.7298	-316.8000	-6.2099
286.8293	-316.8000	-6.2111
286.9310	-316.8000	-6.2105
287.0309	-316.8000	-6.2087
287.1308	-316.8000	-6.2096
287.2321	-316.8000	-6.2103
287.3324	-316.8000	-6.2102
287.4325	-316.8000	-6.2126
287.5326	-316.8000	-6.2094
287.6325	-316.8000	-6.2091
287.7323	-316.8000	-6.2109
287.8325	-316.8000	-6.2093
287.9331	-316.8000	-6.2092
288.0323	-316.8000	-6.2088
288.1334	-316.8000	-6.2134
288.2334	-316.8000	-6.2065
288.3350	-316.8000	-6.2129
288.4350	-316.8000	-6.2105
288.5346	-316.8000	-6.2135
288.6345	-316.8000	-6.2143
288.7356	-316.8000	-6.2111
288.8355	-316.8000	-6.2122
288.9367	-316.8000	-6.2096
289.0389	-316.8000	-6.2118
289.1386	-316.8000	-6.2123
289.2386	-316.8000	-6.2149
289.3399	-316.8000	-6.2102
289.4400	-316.8000	-6.2114
289.5404	-316.8000	-6.2081
289.6407	-316.8000	-6.2114
289.7431	-316.8000	-6.2092
289.8429	-316.8000	-6.2115
289.9428	-316.8000	-6.2113
290.0439	-316.8000	-6.2109
290.1440	-316.8000	-6.2101
290.2434	-316.8000	-6.2106
290.3437	-316.8000	-6.2084
290.4439	-316.8000	-6.2110
290.5434	-316.8000	-6.2093
290.6440	-316.8000	-6.2082
290.7443	-316.8000	-6.2112
290.8461	-316.8000	-6.2090
290.9455	-316.8000	-6.2096
291.0454	-316.8000	-6.2073
291.1459	-316.8000	-6.2096
291.2460	-316.8000	-6.2119
291.3455	-316.8000	-6.2114
291.4457	-316.8000	-6.2105
291.5463	-316.8000	-6.2113
291.6462	-316.8000	-6.2108
291.7454	-316.8000	-6.2105
291.8456	-316.8000	-6.2077
291.9460	-316.8000	-6.2094
292.0460	-316.8000	-6.2091
292.1461	-316.8000	-6.2077
292.2459	-316.8000	-6.2096
292.3459	-316.8000	-6.2062
292.4460	-316.8000	-6.2100
292.5463	-316.8000	-6.2119
292.6458	-316.8000	-6.2037
292.7458	-316.8000	-6.2070
292.8460	-316.8000	-6.2090
292.9460	-316.8000	-6.2059
293.0462	-316.8000	-6.2085
293.1462	-316.8000	-6.2036
293.2478	-316.8000	-6.2055
293.3489	-316.8000	-6.2078
293.4487	-316.8000	-6.2026
293.5491	-316.8000	-6.2096
293.6487	-316.8000	-6.2068
293.7492	-316.8000	-6.2092
293.8487	-316.8000	-6.2114
293.9510	-316.8000	-6.2081
294.0513	-316.8000	-6.2113
294.1510	-316.8000	-6.2041
294.2508	-316.8000	-6.2086
294.3510	-316.8000	-6.2076
294.4511	-316.8000	-6.2093
294.5511	-316.8000	-6.2106
294.6523	-316.8000	-6.2122
294.7524	-316.8000	-6.2085
294.8535	-316.8000	-6.2079
294.9549	-316.8000	-6.2082
295.0546	-316.8000	-6.2090
295.1563	-316.8000	-6.2093
295.2563	-316.8000	-6.2058
295.3556	-316.8000	-6.2054
295.4557	-316.8000	-6.2101
295.5563	-316.8000	-6.2074
295.6560	-316.8000	-6.2055
295.7569	-316.8000	-6.2092
295.8569	-316.8000	-6.2049
295.9565	-316.8000	-6.2071
296.0580	-316.8000	-6.2065
296.1599	-316.8000	-6.2051
296.2591	-316.8000	-6.2054
296.3591	-316.8000	-6.2053
296.4598	-316.8000	-6.2057
296.5596	-316.8000	-6.2040
296.6599	-316.8000	-6.2043
296.7596	-316.8000	-6.2056
296.8599	-316.8000	-6.2049
296.9602	-316.8000	-6.2044
297.0607	-316.8000	-6.2060
297.1609	-316.8000	-6.2072
297.2624	-316.8000	-6.2065
297.3626	-316.8000	-6.2045
297.4630	-316.8000	-6.2054
297.5626	-316.8000	-6.2045
297.6632	-316.8000	-6.2063
297.7625	-316.8000	-6.2075
297.8628	-316.8000	-6.2079
297.9629	-316.8000	-6.2074
298.0630	-316.8000	-6.2014
298.1635	-316.8000	-6.2087
298.2634	-316.8000	-6.2067
298.3645	-316.8000	-6.2051
298.4645	-316.8000	-6.2070
298.5647	-316.8000	-6.2080
298.6654	-316.8000	-6.2064
298.7645	-316.8000	-6.2055
298.8655	-316.8000	-6.2061
298.9660	-316.8000	-6.2081
299.0659	-316.8000	-6.2050
299.1661	-316.8000	-6.2055
299.2664	-316.8000	-6.2034
299.3661	-316.8000	-6.2058
299.4659	-316.8000	-6.2061
299.5656	-316.8000	-6.2037
299.6660	-316.8000	-6.2064
299.7660	-316.8000	-6.2065
299.8657	-316.8000	-6.2069
299.9664	-316.8000	-6.2077
300.0671	-316.8000	-6.2070
300.1673	-316.8000	-6.2066
300.2673	-316.8000	-6.2055
300.3673	-316.8000	-6.2073
300.4667	-316.8000	-6.2068
300.5664	-316.8000	-6.2016
300.6672	-316.8000	-6.2059
300.7666	-316.8000	-6.2029
300.8673	-316.8000	-6.2075
300.9673	-316.8000	-6.2059
301.0665	-316.8000	-6.2068
301.1672	-316.8000	-6.2036
301.2682	-316.8000	-6.2056
301.3681	-316.8000	-6.2074
301.4690	-316.8000	-6.2047
301.5682	-316.8000	-6.2056
301.6675	-316.8000	-6.2081
301.7690	-316.8000	-6.2049
301.8687	-316.8000	-6.2050
301.9701	-316.8000	-6.2045
302.0698	-316.8000	-6.2072
302.1710	-316.8000	-6.2097
302.2704	-316.8000	-6.2051
302.3710	-316.8000	-6.2068
302.4710	-316.8000	-6.2045
302.5706	-316.8000	-6.2055
302.6717	-316.8000	-6.2084
302.7722	-316.8000	-6.2071
302.8720	-316.8000	-6.2037
302.9721	-316.8000	-6.2065
303.0720	-316.8000	-6.2079
303.1718	-316.8000	-6.2050
303.2719	-316.8000	-6.2073
303.3720	-316.8000	-6.2059
303.4732	-316.8000	-6.2050
303.5729	-316.8000	-6.2028
303.6729	-316.8000	-6.1991
303.7729	-316.8000	-6.2034
303.8736	-316.8000	-6.2034
303.9735	-316.8000	-6.2048
304.0736	-316.8000	-6.2056
304.1746	-316.8000	-6.2061
304.2751	-316.8000	-6.2054
304.3748	-316.8000	-6.2022
304.4749	-316.8000	-6.2063
304.5750	-316.8000	-6.2052
304.6758	-316.8000	-6.2072
304.7769	-316.8000	-6.2030
304.8771	-316.8000	-6.2088
304.9769	-316.8000	-6.2020
305.0766	-316.8000	-6.2060
305.1766	-316.8000	-6.2028
305.2765	-316.8000	-6.2047
305.3776	-316.8000	-6.2043
305.4776	-316.8000	-6.2033
305.5783	-316.8000	-6.2025
305.6776	-316.8000	-6.2039
305.7813	-316.8000	-6.2047
305.8811	-316.8000	-6.1993
305.9808	-316.8000	-6.2024
306.0805	-316.8000	-6.2055
306.1812	-316.8000	-6.2032
306.2810	-316.8000	-6.2058
306.3807	-316.8000	-6.2058
306.4824	-316.8000	-6.2057
306.5822	-316.8000	-6.2017
306.6820	-316.8000	-6.2008
306.7831	-316.8000	-6.2026
306.8835	-316.8000	-6.2044
306.9852	-316.8000	-6.2051
307.0850	-316.8000	-6.2022
307.1851	-316.8000	-6.2018
307.2847	-316.8000	-6.2004
307.3850	-316.8000	-6.2043
307.4850	-316.8000	-6.2021
307.5851	-316.8000	-6.1971
307.6853	-316.8000	-6.2011
307.7854	-316.8000	-6.2014
307.8853	-316.8000	-6.2011
307.9851	-316.8000	-6.2048
308.0852	-316.8000	-6.1997
308.1853	-316.8000	-6.2021
308.2848	-316.8000	-6.2051
308.3862	-316.8000	-6.2063
308.4863	-316.8000	-6.2021
308.5855	-316.8000	-6.2019
308.6861	-316.8000	-6.2033
308.7863	-316.8000	-6.2020
308.8862	-316.8000	-6.2015
308.9862	-316.8000	-6.2041
309.0881	-316.8000	-6.2038
309.1866	-316.8000	-6.2021
309.2868	-316.8000	-6.2033
309.3875	-316.8000	-6.2016
309.4882	-316.8000	-6.2030
309.5883	-316.8000	-6.1990
309.6879	-316.8000	-6.2037
309.7893	-316.8000	-6.2065
309.8888	-316.8000	-6.1984
309.9886	-316.8000	-6.2021
310.0890	-316.8000	-6.2022
310.1891	-316.8000	-6.2042
310.2891	-316.8000	-6.1971
310.3904	-316.8000	-6.1993
310.4913	-316.8000	-6.2009
310.5921	-316.8000	-6.2008
310.6916	-316.8000	-6.2003
310.7928	-316.8000	-6.2011
310.8931	-316.8000	-6.2017
310.9932	-316.8000	-6.2016
311.0926	-316.8000	-6.2028
311.1945	-316.8000	-6.2030
311.2941	-316.8000	-6.2028
311.3940	-316.8000	-6.2002
311.4938	-316.8000	-6.2039
311.5938	-316.8000	-6.2022
311.6942	-316.8000	-6.2013
311.7937	-316.8000	-6.2007
311.8943	-316.8000	-6.2017
311.9950	-316.8000	-6.1996
312.0947	-316.8000	-6.2050
312.1945	-316.8000	-6.2004
312.2952	-316.8000	-6.2027
312.3952	-316.8000	-6.2045
312.4951	-316.8000	-6.1987
312.5953	-316.8000	-6.2030
312.6950	-316.8000	-6.2025
312.7952	-316.8000	-6.2046
312.8950	-316.8000	-6.2065
312.9954	-316.8000	-6.2055
313.0954	-316.8000	-6.2004
313.1954	-316.8000	-6.2048
313.2951	-316.8000	-6.2016
313.3952	-316.8000	-6.2023
313.4956	-316.8000	-6.2027
313.5957	-316.8000	-6.2042
313.6957	-316.8000	-6.2021
313.7965	-316.8000	-6.2008
313.8967	-316.8000	-6.2043
313.9968	-316.8000	-6.2016
314.0970	-316.8000	-6.1990
314.1971	-316.8000	-6.1946
314.2976	-316.8000	-6.2002
314.3991	-316.8000	-6.1996
314.4990	-316.8000	-6.2031
314.5988	-316.8000	-6.1974
314.6988	-316.8000	-6.2065
314.8000	-316.8000	-6.2015
314.9003	-316.8000	-6.2029
314.9996	-316.8000	-6.2010
315.0997	-316.8000	-6.2001
315.2012	-316.8000	-6.1992
315.3009	-316.8000	-6.1951
315.4019	-316.8000	-6.1953
315.5017	-316.8000	-6.1978
315.6022	-316.8000	-6.1979
315.7021	-316.8000	-6.1989
315.8021	-316.8000	-6.1985
315.9041	-316.8000	-6.1972
316.0037	-316.8000	-6.1987
316.1053	-316.8000	-6.1974
316.2073	-316.8000	-6.1964
316.3058	-316.8000	-6.1982
316.4063	-316.8000	-6.1990
316.5061	-316.8000	-6.2005
316.6072	-316.8000	-6.2021
316.7069	-316.8000	-6.2000
316.8074	-316.8000	-6.2021
316.9072	-316.8000	-6.2002
317.0071	-316.8000	-6.1980
317.1072	-316.8000	-6.1999
317.2081	-316.8000	-6.2000
317.3084	-316.8000	-6.2022
317.4082	-316.8000	-6.2022
317.5087	-316.8000	-6.2044
317.6091	-316.8000	-6.1986
317.7087	-316.8000	-6.1996
317.8089	-316.8000	-6.2011
317.9089	-316.8000	-6.2017
318.0091	-316.8000	-6.1998
318.1101	-316.8000	-6.2028
318.2106	-316.8000	-6.2022
318.3111	-316.8000	-6.2018
318.4122	-316.8000	-6.2013
318.5120	-316.8000	-6.1988
318.6126	-316.8000	-6.2027
318.7118	-316.8000	-6.1986
318.8122	-316.8000	-6.2000
318.9121	-316.8000	-6.1977
319.0117	-316.8000	-6.2013
319.1134	-316.8000	-6.1997
319.2132	-316.8000	-6.1971
319.3134	-316.8000	-6.2009
319.4133	-316.8000	-6.2008
319.5140	-316.8000	-6.2024
319.6144	-316.8000	-6.2027
319.7140	-316.8000	-6.1995
319.8147	-316.8000	-6.2013
319.9153	-316.8000	-6.1997
320.0150	-316.8000	-6.1999
320.1146	-316.8000	-6.2011
320.2157	-316.8000	-6.2033
320.3160	-316.8000	-6.2008
320.4165	-316.8000	-6.1984
320.5158	-316.8000	-6.1983
320.6158	-316.8000	-6.2003
320.7170	-316.8000	-6.1992
320.8179	-316.8000	-6.1996
320.9186	-316.8000	-6.2002
321.0189	-316.8000	-6.2014
321.1190	-316.8000	-6.1999
321.2189	-316.8000	-6.2012
321.3188	-316.8000	-6.2002
321.4189	-316.8000	-6.1966
321.5189	-316.8000	-6.1960
321.6189	-316.8000	-6.1989
321.7189	-316.8000	-6.1982
321.8187	-316.8000	-6.1981
321.9188	-316.8000	-6.1973
322.0189	-316.8000	-6.1996
322.1190	-316.8000	-6.2006
322.2190	-316.8000	-6.1985
322.3189	-316.8000	-6.1991
322.4189	-316.8000	-6.1982
322.5187	-316.8000	-6.1996
322.6189	-316.8000	-6.1966
322.7189	-316.8000	-6.2030
322.8189	-316.8000	-6.1967
322.9189	-316.8000	-6.1951
323.0192	-316.8000	-6.1966
323.1189	-316.8000	-6.1968
323.2196	-316.8000	-6.1992
323.3203	-316.8000	-6.1971
323.4199	-316.8000	-6.1998
323.5199	-316.8000	-6.1953
323.6210	-316.8000	-6.1969
323.7212	-316.8000	-6.1940
323.8210	-316.8000	-6.1920
323.9215	-316.8000	-6.2008
324.0211	-316.8000	-6.2016
324.1214	-316.8000	-6.1986
324.2211	-316.8000	-6.1955
324.3210	-316.8000	-6.1976
324.4214	-316.8000	-6.1964
324.5206	-316.8000	-6.1958
324.6214	-316.8000	-6.1975
324.7213	-316.8000	-6.1973
324.8212	-316.8000	-6.1977
324.9214	-316.8000	-6.1992
325.0209	-316.8000	-6.1954
325.1213	-316.8000	-6.1950
325.2211	-316.8000	-6.1996
325.3212	-316.8000	-6.1983
325.4213	-316.8000	-6.1959
325.5211	-316.8000	-6.1971
325.6208	-316.8000	-6.1944
325.7213	-316.8000	-6.1975
325.8214	-316.8000	-6.1955
325.9228	-316.8000	-6.1992
326.0246	-316.8000	-6.1977
326.1237	-316.8000	-6.1991
326.2244	-316.8000	-6.1982
326.3247	-316.8000	-6.2001
326.4248	-316.8000	-6.1953
326.5249	-316.8000	-6.1943
326.6256	-316.8000	-6.1965
326.7258	-316.8000	-6.1931
326.8267	-316.8000	-6.1916
326.9267	-316.8000	-6.1943
327.0268	-316.8000	-6.1967
327.1274	-316.8000	-6.1968
327.2273	-316.8000	-6.1957
327.3282	-316.8000	-6.1924
327.4281	-316.8000	-6.1966
327.5282	-316.8000	-6.1927
327.6285	-316.8000	-6.1941
327.7285	-316.8000	-6.2003
327.8289	-316.8000	-6.1984
327.9291	-316.8000	-6.2001
328.0290	-316.8000	-6.1979
328.1297	-316.8000	-6.1960
328.2307	-316.8000	-6.1989
328.3311	-316.8000	-6.1952
328.4311	-316.8000	-6.1964
328.5312	-316.8000	-6.2001
328.6313	-316.8000	-6.1961
328.7313	-316.8000	-6.1952
328.8314	-316.8000	-6.2000
328.9313	-316.8000	-6.1955
329.0311	-316.8000	-6.1956
329.1310	-316.8000	-6.1971
329.2314	-316.8000	-6.1955
329.3313	-316.8000	-6.1961
329.4314	-316.8000	-6.1978
329.5314	-316.8000	-6.1938
329.6314	-316.8000	-6.1962
329.7307	-316.8000	-6.2021
329.8326	-316.8000	-6.1965
329.9326	-316.8000	-6.1926
330.0325	-316.8000	-6.1971
330.1325	-316.8000	-6.1924
330.2326	-316.8000	-6.1961
330.3326	-316.8000	-6.1937
330.4333	-316.8000	-6.1966
330.5337	-316.8000	-6.1915
330.6336	-316.8000	-6.1933
330.7338	-316.8000	-6.1927
330.8338	-316.8000	-6.1923
330.9342	-316.8000	-6.1937
331.0344	-316.8000	-6.1935
331.1338	-316.8000	-6.1909
331.2344	-316.8000	-6.1948
331.3344	-316.8000	-6.1959
331.4339	-316.8000	-6.1942
331.5347	-316.8000	-6.1938
331.6351	-316.8000	-6.1963
331.7349	-316.8000	-6.1986
331.8349	-316.8000	-6.1932
331.9357	-316.8000	-6.1903
332.0359	-316.8000	-6.1911
332.1365	-316.8000	-6.1916
332.2362	-316.8000	-6.1930
332.3363	-316.8000	-6.1955
332.4363	-316.8000	-6.1984
332.5365	-316.8000	-6.1929
332.6366	-316.8000	-6.1937
332.7365	-316.8000	-6.1942
332.8362	-316.8000	-6.1947
332.9365	-316.8000	-6.1981
333.0367	-316.8000	-6.1959
333.1359	-316.8000	-6.1931
333.2368	-316.8000	-6.1967
333.3375	-316.8000	-6.1949
333.4375	-316.8000	-6.1959
333.5369	-316.8000	-6.1945
333.6378	-316.8000	-6.1970
333.7386	-316.8000	-6.1937
333.8393	-316.8000	-6.1934
333.9391	-316.8000	-6.1974
334.0391	-316.8000	-6.1965
334.1391	-316.8000	-6.1954
334.2403	-316.8000	-6.1982
334.3412	-316.8000	-6.1937
334.4414	-316.8000	-6.2007
334.5414	-316.8000	-6.1932
334.6413	-316.8000	-6.1954
334.7427	-316.8000	-6.1943
334.8424	-316.8000	-6.1966
334.9434	-316.8000	-6.1906
335.0432	-316.8000	-6.1929
335.1433	-316.8000	-6.1930
335.2435	-316.8000	-6.1948
335.3435	-316.8000	-6.1936
335.4437	-316.8000	-6.1910
335.5436	-316.8000	-6.1960
335.6434	-316.8000	-6.1930
335.7429	-316.8000	-6.1948
335.8432	-316.8000	-6.1934
335.9432	-316.8000	-6.1977
336.0433	-316.8000	-6.1948
336.1427	-316.8000	-6.1975
336.2439	-316.8000	-6.1927
336.3447	-316.8000	-6.1931
336.4452	-316.8000	-6.1948
336.5467	-316.8000	-6.1958
336.6462	-316.8000	-6.1938
336.7466	-316.8000	-6.1940
336.8466	-316.8000	-6.1939
336.9466	-316.8000	-6.1921
337.0467	-316.8000	-6.1931
337.1464	-316.8000	-6.1936
337.2467	-316.8000	-6.1919
337.3460	-316.8000	-6.1938
337.4467	-316.8000	-6.1911
337.5462	-316.8000	-6.1913
337.6467	-316.8000	-6.1930
337.7467	-316.8000	-6.1962
337.8479	-316.8000	-6.1924
337.9487	-316.8000	-6.1922
338.0481	-316.8000	-6.1930
338.1487	-316.8000	-6.1932
338.2482	-316.8000	-6.1927
338.3483	-316.8000	-6.1924
338.4486	-316.8000	-6.1934
338.5487	-316.8000	-6.1961
338.6484	-316.8000	-6.1937
338.7486	-316.8000	-6.1917
338.8489	-316.8000	-6.1925
338.9490	-316.8000	-6.1948
339.0493	-316.8000	-6.1915
339.1491	-316.8000	-6.1917
339.2491	-316.8000	-6.1948
339.3491	-316.8000	-6.1938
339.4491	-316.8000	-6.1904
339.5491	-316.8000	-6.1918
339.6489	-316.8000	-6.1937
339.7491	-316.8000	-6.1915
339.8491	-316.8000	-6.1924
339.9491	-316.8000	-6.1909
340.0498	-316.8000	-6.1927
340.1506	-316.8000	-6.1911
340.2508	-316.8000	-6.1894
340.3514	-316.8000	-6.1892
340.4508	-316.8000	-6.1934
340.5508	-316.8000	-6.1970
340.6514	-316.8000	-6.1950
340.7515	-316.8000	-6.1937
340.8516	-316.8000	-6.1926
340.9512	-316.8000	-6.1909
341.0514	-316.8000	-6.1933
341.1513	-316.8000	-6.1929
341.2515	-316.8000	-6.1929
341.3515	-316.8000	-6.1921
341.4510	-316.8000	-6.1905
341.5509	-316.8000	-6.1928
341.6511	-316.8000	-6.1947
341.7515	-316.8000	-6.1919
341.8523	-316.8000	-6.1902
341.9520	-316.8000	-6.1912
342.0518	-316.8000	-6.1901
342.1525	-316.8000	-6.1920
342.2519	-316.8000	-6.1935
342.3523	-316.8000	-6.1937
342.4523	-316.8000	-6.1946
342.5530	-316.8000	-6.1898
342.6530	-316.8000	-6.1872
342.7539	-316.8000	-6.1907
342.8544	-316.8000	-6.1902
342.9556	-316.8000	-6.1918
343.0551	-316.8000	-6.1901
343.1550	-316.8000	-6.1888
343.2567	-316.8000	-6.1953
343.3564	-316.8000	-6.1911
343.4563	-316.8000	-6.1894
343.5563	-316.8000	-6.1922
343.6564	-316.8000	-6.1876
343.7562	-316.8000	-6.1916
343.8563	-316.8000	-6.1937
343.9566	-316.8000	-6.1914
344.0575	-316.8000	-6.1927
344.1574	-316.8000	-6.1914
344.2577	-316.8000	-6.1915
344.3575	-316.8000	-6.1901
344.4579	-316.8000	-6.1912
344.5588	-316.8000	-6.1925
344.6587	-316.8000	-6.1908
344.7590	-316.8000	-6.1909
344.8591	-316.8000	-6.1901
344.9592	-316.8000	-6.1908
345.0590	-316.8000	-6.1885
345.1590	-316.8000	-6.1898
345.2605	-316.8000	-6.1882
345.3609	-316.8000	-6.1895
345.4616	-316.8000	-6.1889
345.5616	-316.8000	-6.1875
345.6614	-316.8000	-6.1903
345.7609	-316.8000	-6.1928
345.8616	-316.8000	-6.1914
345.9619	-316.8000	-6.1904
346.0628	-316.8000	-6.1918
346.1629	-316.8000	-6.1906
346.2628	-316.8000	-6.1928
346.3630	-316.8000	-6.1896
346.4632	-316.8000	-6.1908
346.5630	-316.8000	-6.1908
346.6638	-316.8000	-6.1909
346.7643	-316.8000	-6.1861
346.8640	-316.8000	-6.1919
346.9643	-316.8000	-6.1911
347.0644	-316.8000	-6.1883
347.1654	-316.8000	-6.1875
347.2657	-316.8000	-6.1858
347.3668	-316.8000	-6.1872
347.4665	-316.8000	-6.1898
347.5659	-316.8000	-6.1871
347.6659	-316.8000	-6.1881
347.7664	-316.8000	-6.1889
347.8676	-316.8000	-6.1910
347.9675	-316.8000	-6.1892
348.0668	-316.8000	-6.1891
348.1670	-316.8000	-6.1899
348.2679	-316.8000	-6.1910
348.3691	-316.8000	-6.1853
348.4692	-316.8000	-6.1887
348.5692	-316.8000	-6.1882
348.6704	-316.8000	-6.1868
348.7706	-316.8000	-6.1890
348.8698	-316.8000	-6.1882
348.9702	-316.8000	-6.1867
349.0706	-316.8000	-6.1849
349.1707	-316.8000	-6.1869
349.2709	-316.8000	-6.1864
349.3716	-316.8000	-6.1864
349.4716	-316.8000	-6.1900
349.5713	-316.8000	-6.1906
349.6713	-316.8000	-6.1885
349.7710	-316.8000	-6.1885
349.8711	-316.8000	-6.1905
349.9715	-316.8000	-6.1888
350.0715	-316.8000	-6.1892
350.1716	-316.8000	-6.1876
350.2716	-316.8000	-6.1878
350.3712	-316.8000	-6.1873
350.4716	-316.8000	-6.1856
350.5713	-316.8000	-6.1861
350.6716	-316.8000	-6.1915
350.7715	-316.8000	-6.1900
350.8716	-316.8000	-6.1896
350.9712	-316.8000	-6.1861
351.0716	-316.8000	-6.1893
351.1715	-316.8000	-6.1856
351.2713	-316.8000	-6.1892
351.3716	-316.8000	-6.1855
351.4716	-316.8000	-6.1876
351.5716	-316.8000	-6.1885
351.6715	-316.8000	-6.1868
351.7716	-316.8000	-6.1869
351.8715	-316.8000	-6.1829
351.9718	-316.8000	-6.1843
352.0716	-316.8000	-6.1919
352.1714	-316.8000	-6.1889
352.2713	-316.8000	-6.1876
352.3726	-316.8000	-6.1869
352.4735	-316.8000	-6.1880
352.5748	-316.8000	-6.1899
352.6741	-316.8000	-6.1913
352.7748	-316.8000	-6.1918
352.8748	-316.8000	-6.1870
352.9746	-316.8000	-6.1869
353.0745	-316.8000	-6.1871
353.1746	-316.8000	-6.1885
353.2749	-316.8000	-6.1831
353.3750	-316.8000	-6.1879
353.4756	-316.8000	-6.1867
353.5752	-316.8000	-6.1886
353.6756	-316.8000	-6.1851
353.7751	-316.8000	-6.1853
353.8749	-316.8000	-6.1879
353.9759	-316.8000	-6.1835
354.0769	-316.8000	-6.1857
354.1776	-316.8000	-6.1859
354.2775	-316.8000	-6.1865
354.3769	-316.8000	-6.1945
354.4782	-316.8000	-6.1912
354.5783	-316.8000	-6.1855
354.6795	-316.8000	-6.1884
354.7791	-316.8000	-6.1884
354.8793	-316.8000	-6.1888
354.9791	-316.8000	-6.1881
355.0792	-316.8000	-6.1883
355.1790	-316.8000	-6.1826
355.2793	-316.8000	-6.1872
355.3793	-316.8000	-6.1847
355.4792	-316.8000	-6.1860
355.5796	-316.8000	-6.1847
355.6794	-316.8000	-6.1875
355.7792	-316.8000	-6.1900
355.8799	-316.8000	-6.1841
355.9790	-316.8000	-6.1885
356.0793	-316.8000	-6.1890
356.1793	-316.8000	-6.1898
356.2793	-316.8000	-6.1886
356.3792	-316.8000	-6.1921
356.4793	-316.8000	-6.1872
356.5792	-316.8000	-6.1873
356.6793	-316.8000	-6.1858
356.7799	-316.8000	-6.1863
356.8798	-316.8000	-6.1857
356.9792	-316.8000	-6.1874
357.0808	-316.8000	-6.1870
357.1806	-316.8000	-6.1858
357.2805	-316.8000	-6.1869
357.3800	-316.8000	-6.1832
357.4816	-316.8000	-6.1834
357.5816	-316.8000	-6.1865
357.6815	-316.8000	-6.1853
357.7811	-316.8000	-6.1850
357.8828	-316.8000	-6.1828
357.9824	-316.8000	-6.1828
358.0822	-316.8000	-6.1827
358.1830	-316.8000	-6.1807
358.2842	-316.8000	-6.1829
358.3842	-316.8000	-6.1852
358.4849	-316.8000	-6.1874
358.5854	-316.8000	-6.1806
358.6858	-316.8000	-6.1880
358.7859	-316.8000	-6.1804
358.8861	-316.8000	-6.1811
358.9863	-316.8000	-6.1822
359.0869	-316.8000	-6.1825
359.1877	-316.8000	-6.1824
359.2873	-316.8000	-6.1819
359.3876	-316.8000	-6.1820
359.4879	-316.8000	-6.1855
359.5879	-316.8000	-6.1836
359.6871	-316.8000	-6.1839
359.7880	-316.8000	-6.1828
359.8890	-316.8000	-6.1849
359.9892	-316.8000	-6.1853
360.0893	-316.8000	-6.1871
360.1893	-316.8000	-6.1870
360.2893	-316.8000	-6.1873
360.3893	-316.8000	-6.1854
360.4893	-316.8000	-6.1872
360.5893	-316.8000	-6.1863
360.6893	-316.8000	-6.1847
360.7893	-316.8000	-6.1815
360.8893	-316.8000	-6.1848
360.9893	-316.8000	-6.1845
361.0893	-316.8000	-6.1864
361.1893	-316.8000	-6.1865
361.2900	-316.8000	-6.1875
361.3914	-316.8000	-6.1858
361.4917	-316.8000	-6.1828
361.5917	-316.8000	-6.1846
361.6914	-316.8000	-6.1840
361.7916	-316.8000	-6.1816
361.8916	-316.8000	-6.1831
361.9916	-316.8000	-6.1837
362.0915	-316.8000	-6.1833
362.1915	-316.8000	-6.1851
362.2915	-316.8000	-6.1881
362.3916	-316.8000	-6.1821
362.4916	-316.8000	-6.1854
362.5916	-316.8000	-6.1854
362.6918	-316.8000	-6.1833
362.7916	-316.8000	-6.1855
362.8917	-316.8000	-6.1807
362.9926	-316.8000	-6.1828
363.0923	-316.8000	-6.1869
363.1921	-316.8000	-6.1857
363.2924	-316.8000	-6.1844
363.3923	-316.8000	-6.1862
363.4927	-316.8000	-6.1874
363.5921	-316.8000	-6.1815
363.6929	-316.8000	-6.1842
363.7939	-316.8000	-6.1830
363.8940	-316.8000	-6.1858
363.9941	-316.8000	-6.1814
364.0947	-316.8000	-6.1816
364.1942	-316.8000	-6.1829
364.2952	-316.8000	-6.1803
364.3953	-316.8000	-6.1810
364.4953	-316.8000	-6.1809
364.5952	-316.8000	-6.1814
364.6953	-316.8000	-6.1796
364.7953	-316.8000	-6.1753
364.8965	-316.8000	-6.1836
364.9971	-316.8000	-6.1803
365.0971	-316.8000	-6.1813
365.1973	-316.8000	-6.1823
365.2974	-316.8000	-6.1818
365.3972	-316.8000	-6.1823
365.4978	-316.8000	-6.1828
365.5979	-316.8000	-6.1815
365.6978	-316.8000	-6.1821
365.7979	-316.8000	-6.1819
365.8972	-316.8000	-6.1803
365.9971	-316.8000	-6.1810
366.0978	-316.8000	-6.1843
366.1979	-316.8000	-6.1852
366.2978	-316.8000	-6.1866
366.3978	-316.8000	-6.1853
366.4977	-316.8000	-6.1832
366.5972	-316.8000	-6.1833
366.6973	-316.8000	-6.1816
366.7973	-316.8000	-6.1814
366.8974	-316.8000	-6.1828
366.9976	-316.8000	-6.1823
367.0976	-316.8000	-6.1830
367.1978	-316.8000	-6.1831
367.2978	-316.8000	-6.1849
367.3979	-316.8000	-6.1823
367.4975	-316.8000	-6.1827
367.5971	-316.8000	-6.1848
367.6974	-316.8000	-6.1827
367.7972	-316.8000	-6.1859
367.8973	-316.8000	-6.1874
367.9973	-316.8000	-6.1876
368.0974	-316.8000	-6.1854
368.1975	-316.8000	-6.1858
368.2983	-316.8000	-6.1842
368.3983	-316.8000	-6.1833
368.4983	-316.8000	-6.1845
368.5982	-316.8000	-6.1801
368.6990	-316.8000	-6.1800
368.7992	-316.8000	-6.1847
368.8992	-316.8000	-6.1812
368.9993	-316.8000	-6.1778
369.0993	-316.8000	-6.1771
369.1994	-316.8000	-6.1783
369.2999	-316.8000	-6.1810
369.3994	-316.8000	-6.1816
369.4994	-316.8000	-6.1834
369.5994	-316.8000	-6.1791
369.6993	-316.8000	-6.1830
369.7993	-316.8000	-6.1850
369.8992	-316.8000	-6.1834
369.9993	-316.8000	-6.1816
370.0994	-316.8000	-6.1812
370.1993	-316.8000	-6.1853
370.2994	-316.8000	-6.1784
370.3994	-316.8000	-6.1774
370.4994	-316.8000	-6.1798
370.5995	-316.8000	-6.1788
370.6994	-316.8000	-6.1827
370.7993	-316.8000	-6.1834
370.8994	-316.8000	-6.1848
370.9993	-316.8000	-6.1796
371.0995	-316.8000	-6.1832
371.1994	-316.8000	-6.1863
371.2994	-316.8000	-6.1861
371.3994	-316.8000	-6.1833
371.5000	-316.8000	-6.1840
371.5994	-316.8000	-6.1816
371.6992	-316.8000	-6.1798
371.7993	-316.8000	-6.1810
371.9011	-316.8000	-6.1846
372.0013	-316.8000	-6.1811
372.1017	-316.8000	-6.1793
372.2016	-316.8000	-6.1802
372.3024	-316.8000	-6.1805
372.4026	-316.8000	-6.1819
372.5026	-316.8000	-6.1856
372.6028	-316.8000	-6.1821
372.7033	-316.8000	-6.1858
372.8034	-316.8000	-6.1785
372.9037	-316.8000	-6.1836
373.0032	-316.8000	-6.1821
373.1033	-316.8000	-6.1804
373.2035	-316.8000	-6.1797
373.3038	-316.8000	-6.1783
373.4048	-316.8000	-6.1770
373.5050	-316.8000	-6.1788
373.6042	-316.8000	-6.1803
373.7060	-316.8000	-6.1783
373.8070	-316.8000	-6.1804
373.9065	-316.8000	-6.1808
374.0061	-316.8000	-6.1780
374.1068	-316.8000	-6.1792
374.2070	-316.8000	-6.1771
374.3067	-316.8000	-6.1801
374.4066	-316.8000	-6.1789
374.5069	-316.8000	-6.1786
374.6068	-316.8000	-6.1830
374.7071	-316.8000	-6.1793
374.8071	-316.8000	-6.1798
374.9072	-316.8000	-6.1760
375.0071	-316.8000	-6.1784
375.1090	-316.8000	-6.1793
375.2092	-316.8000	-6.1757
375.3094	-316.8000	-6.1797
375.4094	-316.8000	-6.1817
375.5091	-316.8000	-6.1782
375.6094	-316.8000	-6.1753
375.7095	-316.8000	-6.1786
375.8094	-316.8000	-6.1791
375.9094	-316.8000	-6.1781
376.0094	-316.8000	-6.1779
376.1094	-316.8000	-6.1763
376.2107	-316.8000	-6.1760
376.3111	-316.8000	-6.1783
376.4118	-316.8000	-6.1778
376.5118	-316.8000	-6.1767
376.6115	-316.8000	-6.1789
376.7119	-316.8000	-6.1821
376.8118	-316.8000	-6.1759
376.9118	-316.8000	-6.1828
377.0117	-316.8000	-6.1779
377.1117	-316.8000	-6.1771
377.2120	-316.8000	-6.1777
377.3118	-316.8000	-6.1810
377.4118	-316.8000	-6.1801
377.5118	-316.8000	-6.1764
377.6118	-316.8000	-6.1768
377.7118	-316.8000	-6.1796
377.8119	-316.8000	-6.1768
377.9125	-316.8000	-6.1793
378.0129	-316.8000	-6.1788
378.1131	-316.8000	-6.1822
378.2125	-316.8000	-6.1741
378.3121	-316.8000	-6.1833
378.4132	-316.8000	-6.1768
378.5140	-316.8000	-6.1776
378.6141	-316.8000	-6.1777
378.7160	-316.8000	-6.1764
378.8158	-316.8000	-6.1811
378.9153	-316.8000	-6.1810
379.0170	-316.8000	-6.1752
379.1167	-316.8000	-6.1776
379.2168	-316.8000	-6.1797
379.3167	-316.8000	-6.1809
379.4168	-316.8000	-6.1799
379.5165	-316.8000	-6.1802
379.6173	-316.8000	-6.1778
379.7171	-316.8000	-6.1786
379.8182	-316.8000	-6.1772
379.9189	-316.8000	-6.1803
380.0188	-316.8000	-6.1749
380.1193	-316.8000	-6.1858
380.2200	-316.8000	-6.1766
380.3195	-316.8000	-6.1848
380.4195	-316.8000	-6.1730
380.5195	-316.8000	-6.1758
380.6195	-316.8000	-6.1766
380.7201	-316.8000	-6.1714
380.8201	-316.8000	-6.1819
380.9193	-316.8000	-6.1751
381.0195	-316.8000	-6.1822
381.1209	-316.8000	-6.1764
381.2210	-316.8000	-6.1775
381.3216	-316.8000	-6.1776
381.4219	-316.8000	-6.1786
381.5218	-316.8000	-6.1763
381.6219	-316.8000	-6.1745
381.7213	-316.8000	-6.1766
381.8217	-316.8000	-6.1755
381.9218	-316.8000	-6.1752
382.0219	-316.8000	-6.1725
382.1219	-316.8000	-6.1746
382.2214	-316.8000	-6.1742
382.3219	-316.8000	-6.1708
382.4218	-316.8000	-6.1771
382.5219	-316.8000	-6.1735
382.6218	-316.8000	-6.1736
382.7219	-316.8000	-6.1742
382.8219	-316.8000	-6.1726
382.9217	-316.8000	-6.1750
383.0215	-316.8000	-6.1755
383.1218	-316.8000	-6.1745
383.2218	-316.8000	-6.1717
383.3218	-316.8000	-6.1724
383.4218	-316.8000	-6.1742
383.5220	-316.8000	-6.1705
383.6219	-316.8000	-6.1746
383.7219	-316.8000	-6.1718
383.8219	-316.8000	-6.1712
383.9220	-316.8000	-6.1739
384.0218	-316.8000	-6.1757
384.1219	-316.8000	-6.1726
384.2218	-316.8000	-6.1744
384.3223	-316.8000	-6.1762
384.4236	-316.8000	-6.1728
384.5235	-316.8000	-6.1747
384.6234	-316.8000	-6.1772
384.7234	-316.8000	-6.1763
384.8239	-316.8000	-6.1734
384.9235	-316.8000	-6.1732
385.0239	-316.8000	-6.1728
385.1238	-316.8000	-6.1753
385.2237	-316.8000	-6.1755
385.3238	-316.8000	-6.1781
385.4249	-316.8000	-6.1743
385.5253	-316.8000	-6.1733
385.6256	-316.8000	-6.1739
385.7264	-316.8000	-6.1748
385.8272	-316.8000	-6.1736
385.9272	-316.8000	-6.1783
386.0283	-316.8000	-6.1808
386.1292	-316.8000	-6.1726
386.2296	-316.8000	-6.1729
386.3295	-316.8000	-6.1748
386.4295	-316.8000	-6.1746
386.5305	-316.8000	-6.1734
386.6315	-316.8000	-6.1737
386.7320	-316.8000	-6.1707
386.8314	-316.8000	-6.1725
386.9318	-316.8000	-6.1748
387.0316	-316.8000	-6.1692
387.1319	-316.8000	-6.1741
387.2320	-316.8000	-6.1737
387.3316	-316.8000	-6.1707
387.4320	-316.8000	-6.1744
387.5319	-316.8000	-6.1738
387.6317	-316.8000	-6.1739
387.7320	-316.8000	-6.1735
387.8319	-316.8000	-6.1766
387.9326	-316.8000	-6.1727
388.0324	-316.8000	-6.1733
388.1332	-316.8000	-6.1760
388.2326	-316.8000	-6.1730
388.3332	-316.8000	-6.1746
388.4327	-316.8000	-6.1749
388.5324	-316.8000	-6.1771
388.6330	-316.8000	-6.1760
388.7332	-316.8000	-6.1715
388.8335	-316.8000	-6.1756
388.9342	-316.8000	-6.1762
389.0336	-316.8000	-6.1756
389.1342	-316.8000	-6.1744
389.2347	-316.8000	-6.1759
389.3343	-316.8000	-6.1730
389.4344	-316.8000	-6.1709
389.5346	-316.8000	-6.1745
389.6342	-316.8000	-6.1739
389.7350	-316.8000	-6.1726
389.8349	-316.8000	-6.1744
389.9348	-316.8000	-6.1755
390.0345	-316.8000	-6.1748
390.1345	-316.8000	-6.1761
390.2359	-316.8000	-6.1740
390.3358	-316.8000	-6.1760
390.4363	-316.8000	-6.1764
390.5370	-316.8000	-6.1766
390.6372	-316.8000	-6.1764
390.7374	-316.8000	-6.1746
390.8377	-316.8000	-6.1733
390.9378	-316.8000	-6.1745
391.0377	-316.8000	-6.1749
391.1375	-316.8000	-6.1736
391.2383	-316.8000	-6.1753
391.3394	-316.8000	-6.1728
391.4395	-316.8000	-6.1718
391.5400	-316.8000	-6.1752
391.6395	-316.8000	-6.1753
391.7396	-316.8000	-6.1740
391.8395	-316.8000	-6.1746
391.9395	-316.8000	-6.1726
392.0395	-316.8000	-6.1733
392.1395	-316.8000	-6.1744
392.2396	-316.8000	-6.1745
392.3396	-316.8000	-6.1732
392.4396	-316.8000	-6.1727
392.5401	-316.8000	-6.1720
392.6394	-316.8000	-6.1737
392.7396	-316.8000	-6.1685
392.8395	-316.8000	-6.1693
392.9396	-316.8000	-6.1710
393.0403	-316.8000	-6.1704
393.1412	-316.8000	-6.1715
393.2409	-316.8000	-6.1731
393.3406	-316.8000	-6.1764
393.4408	-316.8000	-6.1736
393.5417	-316.8000	-6.1717
393.6419	-316.8000	-6.1728
393.7413	-316.8000	-6.1733
393.8413	-316.8000	-6.1728
393.9416	-316.8000	-6.1762
394.0420	-316.8000	-6.1723
394.1418	-316.8000	-6.1743
394.2418	-316.8000	-6.1714
394.3417	-316.8000	-6.1728
394.4418	-316.8000	-6.1684
394.5420	-316.8000	-6.1689
394.6417	-316.8000	-6.1692
394.7420	-316.8000	-6.1708
394.8419	-316.8000	-6.1703
394.9419	-316.8000	-6.1715
395.0429	-316.8000	-6.1707
395.1441	-316.8000	-6.1699
395.2440	-316.8000	-6.1686
395.3442	-316.8000	-6.1704
395.4442	-316.8000	-6.1683
395.5445	-316.8000	-6.1725
395.6448	-316.8000	-6.1723
395.7445	-316.8000	-6.1703
395.8448	-316.8000	-6.1730
395.9452	-316.8000	-6.1718
396.0454	-316.8000	-6.1701
396.1457	-316.8000	-6.1693
396.2462	-316.8000	-6.1704
396.3453	-316.8000	-6.1692
396.4462	-316.8000	-6.1726
396.5464	-316.8000	-6.1767
396.6465	-316.8000	-6.1711
396.7464	-316.8000	-6.1708
396.8472	-316.8000	-6.1730
396.9481	-316.8000	-6.1720
397.0475	-316.8000	-6.1715
397.1484	-316.8000	-6.1712
397.2489	-316.8000	-6.1703
397.3490	-316.8000	-6.1726
397.4491	-316.8000	-6.1703
397.5487	-316.8000	-6.1714
397.6489	-316.8000	-6.1703
397.7485	-316.8000	-6.1681
397.8487	-316.8000	-6.1711
397.9491	-316.8000	-6.1692
398.0492	-316.8000	-6.1674
398.1489	-316.8000	-6.1658
398.2490	-316.8000	-6.1700
398.3484	-316.8000	-6.1703
398.4485	-316.8000	-6.1679
398.5489	-316.8000	-6.1684
398.6485	-316.8000	-6.1696
398.7488	-316.8000	-6.1719
398.8493	-316.8000	-6.1687
398.9497	-316.8000	-6.1699
399.0496	-316.8000	-6.1670
399.1496	-316.8000	-6.1695
399.2497	-316.8000	-6.1684
399.3501	-316.8000	-6.1687
399.4497	-316.8000	-6.1662
399.5496	-316.8000	-6.1689
399.6496	-316.8000	-6.1693
399.7501	-316.8000	-6.1679
399.8496	-316.8000	-6.1684
399.9496	-316.8000	-6.1674
400.0496	-316.8000	-6.1692
400.1496	-316.8000	-6.1692
400.2495	-316.8000	-6.1678
400.3512	-316.8000	-6.1710
400.4520	-316.8000	-6.1670
400.5521	-316.8000	-6.1723
400.6521	-316.8000	-6.1702
400.7521	-316.8000	-6.1713
400.8520	-316.8000	-6.1688
400.9520	-316.8000	-6.1720
401.0521	-316.8000	-6.1715
401.1521	-316.8000	-6.1670
401.2520	-316.8000	-6.1695
401.3515	-316.8000	-6.1687
401.4521	-316.8000	-6.1692
401.5518	-316.8000	-6.1704
401.6521	-316.8000	-6.1693
401.7519	-316.8000	-6.1708
401.8520	-316.8000	-6.1666
401.9517	-316.8000	-6.1650
402.0513	-316.8000	-6.1691
402.1516	-316.8000	-6.1714
402.2521	-316.8000	-6.1666
402.3524	-316.8000	-6.1632
402.4535	-316.8000	-6.1706
402.5540	-316.8000	-6.1705
402.6543	-316.8000	-6.1695
402.7544	-316.8000	-6.1688
402.8546	-316.8000	-6.1677
402.9544	-316.8000	-6.1686
403.0553	-316.8000	-6.1672
403.1555	-316.8000	-6.1661
403.2555	-316.8000	-6.1710
403.3554	-316.8000	-6.1696
403.4559	-316.8000	-6.1677
403.5556	-316.8000	-6.1658
403.6567	-316.8000	-6.1711
403.7575	-316.8000	-6.1695
403.8583	-316.8000	-6.1654
403.9582	-316.8000	-6.1637
404.0577	-316.8000	-6.1651
404.1583	-316.8000	-6.1664
404.2582	-316.8000	-6.1696
404.3580	-316.8000	-6.1668
404.4579	-316.8000	-6.1701
404.5579	-316.8000	-6.1707
404.6579	-316.8000	-6.1690
404.7578	-316.8000	-6.1690
404.8578	-316.8000	-6.1714
404.9582	-316.8000	-6.1666
405.0575	-316.8000	-6.1643
405.1585	-316.8000	-6.1683
405.2588	-316.8000	-6.1694
405.3596	-316.8000	-6.1664
405.4599	-316.8000	-6.1666
405.5606	-316.8000	-6.1663
405.6619	-316.8000	-6.1684
405.7617	-316.8000	-6.1666
405.8628	-316.8000	-6.1687
405.9631	-316.8000	-6.1712
406.0624	-316.8000	-6.1671
406.1633	-316.8000	-6.1665
406.2633	-316.8000	-6.1684
406.3634	-316.8000	-6.1644
406.4640	-316.8000	-6.1684
406.5645	-316.8000	-6.1704
406.6645	-316.8000	-6.1680
406.7650	-316.8000	-6.1677
406.8655	-316.8000	-6.1665
406.9664	-316.8000	-6.1646
407.0666	-316.8000	-6.1674
407.1674	-316.8000	-6.1693
407.2685	-316.8000	-6.1711
407.3693	-316.8000	-6.1715
407.4695	-316.8000	-6.1634
407.5697	-316.8000	-6.1661
407.6697	-316.8000	-6.1655
407.7697	-316.8000	-6.1630
407.8697	-316.8000	-6.1662
407.9697	-316.8000	-6.1658
408.0705	-316.8000	-6.1693
408.1710	-316.8000	-6.1669
408.2707	-316.8000	-6.1640
408.3713	-316.8000	-6.1638
408.4707	-316.8000	-6.1687
408.5705	-316.8000	-6.1675
408.6714	-316.8000	-6.1624
408.7713	-316.8000	-6.1672
408.8717	-316.8000	-6.1671
408.9719	-316.8000	-6.1683
409.0720	-316.8000	-6.1641
409.1718	-316.8000	-6.1697
409.2721	-316.8000	-6.1651
409.3722	-316.8000	-6.1645
409.4722	-316.8000	-6.1651
409.5722	-316.8000	-6.1686
409.6718	-316.8000	-6.1621
409.7716	-316.8000	-6.1583
409.8718	-316.8000	-6.1671
409.9721	-316.8000	-6.1681
410.0722	-316.8000	-6.1659
410.1721	-316.8000	-6.1663
410.2721	-316.8000	-6.1646
410.3719	-316.8000	-6.1655
410.4720	-316.8000	-6.1602
410.5718	-316.8000	-6.1662
410.6719	-316.8000	-6.1647
410.7715	-316.8000	-6.1668
410.8723	-316.8000	-6.1681
410.9720	-316.8000	-6.1681
411.0718	-316.8000	-6.1724
411.1717	-316.8000	-6.1671
411.2722	-316.8000	-6.1658
411.3720	-316.8000	-6.1642
411.4722	-316.8000	-6.1649
411.5722	-316.8000	-6.1685
411.6720	-316.8000	-6.1664
411.7722	-316.8000	-6.1676
411.8725	-316.8000	-6.1683
411.9729	-316.8000	-6.1640
412.0730	-316.8000	-6.1612
412.1734	-316.8000	-6.1676
412.2724	-316.8000	-6.1654
412.3734	-316.8000	-6.1634
412.4742	-316.8000	-6.1630
412.5745	-316.8000	-6.1655
412.6744	-316.8000	-6.1660
412.7745	-316.8000	-6.1669
412.8754	-316.8000	-6.1667
412.9755	-316.8000	-6.1641
413.0759	-316.8000	-6.1658
413.1764	-316.8000	-6.1646
413.2762	-316.8000	-6.1623
413.3772	-316.8000	-6.1632
413.4774	-316.8000	-6.1651
413.5775	-316.8000	-6.1581
413.6785	-316.8000	-6.1616
413.7786	-316.8000	-6.1618
413.8796	-316.8000	-6.1625
413.9797	-316.8000	-6.1631
414.0797	-316.8000	-6.1613
414.1798	-316.8000	-6.1674
414.2798	-316.8000	-6.1659
414.3796	-316.8000	-6.1644
414.4797	-316.8000	-6.1653
414.5798	-316.8000	-6.1679
414.6805	-316.8000	-6.1632
414.7812	-316.8000	-6.1651
414.8806	-316.8000	-6.1656
414.9821	-316.8000	-6.1656
415.0822	-316.8000	-6.1650
415.1819	-316.8000	-6.1675
415.2818	-316.8000	-6.1643
415.3836	-316.8000	-6.1674
415.4845	-316.8000	-6.1665
415.5845	-316.8000	-6.1634
415.6849	-316.8000	-6.1666
415.7853	-316.8000	-6.1631
415.8848	-316.8000	-6.1668
415.9852	-316.8000	-6.1645
416.0850	-316.8000	-6.1613
416.1871	-316.8000	-6.1665
416.2868	-316.8000	-6.1645
416.3866	-316.8000	-6.1653
416.4873	-316.8000	-6.1624
416.5866	-316.8000	-6.1631
416.6870	-316.8000	-6.1589
416.7871	-316.8000	-6.1645
416.8866	-316.8000	-6.1653
416.9876	-316.8000	-6.1617
417.0882	-316.8000	-6.1605
417.1883	-316.8000	-6.1638
417.2880	-316.8000	-6.1612
417.3876	-316.8000	-6.1617
417.4879	-316.8000	-6.1644
417.5876	-316.8000	-6.1611
417.6894	-316.8000	-6.1629
417.7891	-316.8000	-6.1603
417.8889	-316.8000	-6.1627
417.9886	-316.8000	-6.1626
418.0894	-316.8000	-6.1646
418.1902	-316.8000	-6.1639
418.2899	-316.8000	-6.1661
418.3898	-316.8000	-6.1701
418.4898	-316.8000	-6.1687
418.5898	-316.8000	-6.1616
418.6898	-316.8000	-6.1629
418.7910	-316.8000	-6.1647
418.8919	-316.8000	-6.1641
418.9918	-316.8000	-6.1639
419.0925	-316.8000	-6.1622
419.1935	-316.8000	-6.1619
419.2936	-316.8000	-6.1661
419.3939	-316.8000	-6.1652
419.4935	-316.8000	-6.1640
419.5940	-316.8000	-6.1594
419.6943	-316.8000	-6.1612
419.7941	-316.8000	-6.1610
419.8942	-316.8000	-6.1671
419.9945	-316.8000	-6.1665
420.0949	-316.8000	-6.1633
420.1958	-316.8000	-6.1632
420.2967	-316.8000	-6.1669
420.3970	-316.8000	-6.1657
420.4966	-316.8000	-6.1602
420.5975	-316.8000	-6.1612
420.6975	-316.8000	-6.1591
420.7975	-316.8000	-6.1628
420.8980	-316.8000	-6.1610
420.9978	-316.8000	-6.1630
421.0981	-316.8000	-6.1643
421.1975	-316.8000	-6.1647
421.2976	-316.8000	-6.1633
421.3981	-316.8000	-6.1670
421.4986	-316.8000	-6.1673
421.6000	-316.8000	-6.1672
421.7012	-316.8000	-6.1623
421.8015	-316.8000	-6.1633
421.9013	-316.8000	-6.1647
422.0018	-316.8000	-6.1634
422.1021	-316.8000	-6.1604
422.2020	-316.8000	-6.1667
422.3021	-316.8000	-6.1631
422.4020	-316.8000	-6.1627
422.5022	-316.8000	-6.1629
422.6022	-316.8000	-6.1627
422.7021	-316.8000	-6.1594
422.8021	-316.8000	-6.1607
422.9023	-316.8000	-6.1615
423.0023	-316.8000	-6.1588
423.1023	-316.8000	-6.1628
423.2021	-316.8000	-6.1551
423.3023	-316.8000	-6.1626
423.4023	-316.8000	-6.1600
423.5021	-316.8000	-6.1601
423.6019	-316.8000	-6.1606
423.7023	-316.8000	-6.1618
423.8023	-316.8000	-6.1600
423.9022	-316.8000	-6.1609
424.0023	-316.8000	-6.1623
424.1022	-316.8000	-6.1597
424.2021	-316.8000	-6.1624
424.3023	-316.8000	-6.1596
424.4020	-316.8000	-6.1609
424.5023	-316.8000	-6.1615
424.6023	-316.8000	-6.1573
424.7021	-316.8000	-6.1590
424.8024	-316.8000	-6.1584
424.9019	-316.8000	-6.1612
425.0030	-316.8000	-6.1593
425.1032	-316.8000	-6.1638
425.2038	-316.8000	-6.1600
425.3040	-316.8000	-6.1600
425.4041	-316.8000	-6.1591
425.5041	-316.8000	-6.1561
425.6037	-316.8000	-6.1614
425.7045	-316.8000	-6.1557
425.8047	-316.8000	-6.1566
425.9046	-316.8000	-6.1594
426.0050	-316.8000	-6.1607
426.1052	-316.8000	-6.1574
426.2049	-316.8000	-6.1647
426.3053	-316.8000	-6.1552
426.4054	-316.8000	-6.1604
426.5057	-316.8000	-6.1602
426.6064	-316.8000	-6.1549
426.7071	-316.8000	-6.1576
426.8070	-316.8000	-6.1548
426.9078	-316.8000	-6.1539
427.0077	-316.8000	-6.1610
427.1081	-316.8000	-6.1580
427.2085	-316.8000	-6.1578
427.3083	-316.8000	-6.1560
427.4084	-316.8000	-6.1534
427.5079	-316.8000	-6.1591
427.6084	-316.8000	-6.1579
427.7087	-316.8000	-6.1533
427.8087	-316.8000	-6.1584
427.9089	-316.8000	-6.1620
428.0089	-316.8000	-6.1606
428.1086	-316.8000	-6.1558
428.2091	-316.8000	-6.1606
428.3095	-316.8000	-6.1573
428.4095	-316.8000	-6.1603
428.5090	-316.8000	-6.1583
428.6090	-316.8000	-6.1586
428.7093	-316.8000	-6.1630
428.8094	-316.8000	-6.1569
428.9088	-316.8000	-6.1555
429.0094	-316.8000	-6.1592
429.1093	-316.8000	-6.1588
429.2093	-316.8000	-6.1550
429.3090	-316.8000	-6.1570
429.4086	-316.8000	-6.1615
429.5090	-316.8000	-6.1591
429.6092	-316.8000	-6.1581
429.7093	-316.8000	-6.1563
429.8093	-316.8000	-6.1573
429.9096	-316.8000	-6.1632
430.0098	-316.8000	-6.1565
430.1106	-316.8000	-6.1572
430.2114	-316.8000	-6.1585
430.3112	-316.8000	-6.1598
430.4115	-316.8000	-6.1592
430.5117	-316.8000	-6.1587
430.6123	-316.8000	-6.1579
430.7121	-316.8000	-6.1579
430.8124	-316.8000	-6.1570
430.9119	-316.8000	-6.1602
431.0121	-316.8000	-6.1589
431.1134	-316.8000	-6.1567
431.2134	-316.8000	-6.1588
431.3128	-316.8000	-6.1634
431.4143	-316.8000	-6.1560
431.5146	-316.8000	-6.1560
431.6158	-316.8000	-6.1553
431.7157	-316.8000	-6.1592
431.8160	-316.8000	-6.1605
431.9162	-316.8000	-6.1565
432.0161	-316.8000	-6.1583
432.1159	-316.8000	-6.1575
432.2160	-316.8000	-6.1606
432.3160	-316.8000	-6.1574
432.4167	-316.8000	-6.1579
432.5172	-316.8000	-6.1571
432.6172	-316.8000	-6.1548
432.7175	-316.8000	-6.1581
432.8166	-316.8000	-6.1567
432.9175	-316.8000	-6.1564
433.0171	-316.8000	-6.1567
433.1169	-316.8000	-6.1582
433.2174	-316.8000	-6.1540
433.3173	-316.8000	-6.1547
433.4174	-316.8000	-6.1542
433.5174	-316.8000	-6.1580
433.6176	-316.8000	-6.1546
433.7170	-316.8000	-6.1571
433.8204	-316.8000	-6.1621
433.9206	-316.8000	-6.1558
434.0210	-316.8000	-6.1525
434.1216	-316.8000	-6.1557
434.2214	-316.8000	-6.1546
434.3206	-316.8000	-6.1538
434.4212	-316.8000	-6.1585
434.5222	-316.8000	-6.1558
434.6222	-316.8000	-6.1558
434.7222	-316.8000	-6.1608
434.8220	-316.8000	-6.1556
434.9222	-316.8000	-6.1614
435.0218	-316.8000	-6.1583
435.1223	-316.8000	-6.1565
435.2224	-316.8000	-6.1583
435.3221	-316.8000	-6.1586
435.4223	-316.8000	-6.1553
435.5224	-316.8000	-6.1574
435.6224	-316.8000	-6.1558
435.7220	-316.8000	-6.1546
435.8235	-316.8000	-6.1527
435.9244	-316.8000	-6.1513
436.0248	-316.8000	-6.1645
436.1251	-316.8000	-6.1499
436.2247	-316.8000	-6.1563
436.3257	-316.8000	-6.1585
436.4267	-316.8000	-6.1546
436.5276	-316.8000	-6.1558
436.6272	-316.8000	-6.1524
436.7277	-316.8000	-6.1541
436.8286	-316.8000	-6.1563
436.9281	-316.8000	-6.1537
437.0278	-316.8000	-6.1506
437.1277	-316.8000	-6.1558
437.2280	-316.8000	-6.1592
437.3293	-316.8000	-6.1529
437.4289	-316.8000	-6.1566
437.5287	-316.8000	-6.1596
437.6296	-316.8000	-6.1544
437.7298	-316.8000	-6.1519
437.8301	-316.8000	-6.1541
437.9300	-316.8000	-6.1509
438.0304	-316.8000	-6.1541
438.1299	-316.8000	-6.1494
438.2301	-316.8000	-6.1590
438.3305	-316.8000	-6.1549
438.4300	-316.8000	-6.1592
438.5299	-316.8000	-6.1543
438.6300	-316.8000	-6.1562
438.7300	-316.8000	-6.1586
438.8300	-316.8000	-6.1534
438.9300	-316.8000	-6.1557
439.0299	-316.8000	-6.1505
439.1305	-316.8000	-6.1531
439.2313	-316.8000	-6.1517
439.3322	-316.8000	-6.1551
439.4322	-316.8000	-6.1579
439.5324	-316.8000	-6.1533
439.6324	-316.8000	-6.1578
439.7321	-316.8000	-6.1603
439.8324	-316.8000	-6.1561
439.9324	-316.8000	-6.1552
440.0320	-316.8000	-6.1555
440.1324	-316.8000	-6.1502
440.2327	-316.8000	-6.1542
440.3339	-316.8000	-6.1530
440.4339	-316.8000	-6.1536
440.5350	-316.8000	-6.1565
440.6358	-316.8000	-6.1547
440.7365	-316.8000	-6.1542
440.8367	-316.8000	-6.1532
440.9377	-316.8000	-6.1485
441.0377	-316.8000	-6.1505
441.1376	-316.8000	-6.1518
441.2367	-316.8000	-6.1532
441.3377	-316.8000	-6.1578
441.4388	-316.8000	-6.1551
441.5391	-316.8000	-6.1535
441.6390	-316.8000	-6.1551
441.7392	-316.8000	-6.1546
441.8396	-316.8000	-6.1551
441.9396	-316.8000	-6.1530
442.0396	-316.8000	-6.1500
442.1394	-316.8000	-6.1557
442.2399	-316.8000	-6.1512
442.3400	-316.8000	-6.1545
442.4400	-316.8000	-6.1569
442.5401	-316.8000	-6.1498
442.6412	-316.8000	-6.1557
442.7411	-316.8000	-6.1514
442.8422	-316.8000	-6.1534
442.9421	-316.8000	-6.1541
443.0436	-316.8000	-6.1518
443.1433	-316.8000	-6.1537
443.2432	-316.8000	-6.1549
443.3434	-316.8000	-6.1559
443.4427	-316.8000	-6.1555
443.5436	-316.8000	-6.1537
443.6427	-316.8000	-6.1545
443.7436	-316.8000	-6.1513
443.8433	-316.8000	-6.1515
443.9431	-316.8000	-6.1528
444.0431	-316.8000	-6.1495
444.1432	-316.8000	-6.1545
444.2433	-316.8000	-6.1528
444.3431	-316.8000	-6.1537
444.4433	-316.8000	-6.1497
444.5444	-316.8000	-6.1528
444.6446	-316.8000	-6.1536
444.7446	-316.8000	-6.1550
444.8440	-316.8000	-6.1564
444.9440	-316.8000	-6.1528
445.0444	-316.8000	-6.1531
445.1447	-316.8000	-6.1526
445.2450	-316.8000	-6.1532
445.3453	-316.8000	-6.1581
445.4451	-316.8000	-6.1505
445.5457	-316.8000	-6.1566
445.6459	-316.8000	-6.1496
445.7468	-316.8000	-6.1512
445.8477	-316.8000	-6.1537
445.9479	-316.8000	-6.1530
446.0484	-316.8000	-6.1524
446.1481	-316.8000	-6.1493
446.2479	-316.8000	-6.1565
446.3480	-316.8000	-6.1491
446.4481	-316.8000	-6.1538
446.5482	-316.8000	-6.1518
446.6487	-316.8000	-6.1534
446.7488	-316.8000	-6.1508
446.8489	-316.8000	-6.1505
446.9491	-316.8000	-6.1589
447.0492	-316.8000	-6.1529
447.1494	-316.8000	-6.1544
447.2495	-316.8000	-6.1505
447.3495	-316.8000	-6.1543
447.4492	-316.8000	-6.1530
447.5491	-316.8000	-6.1439
447.6491	-316.8000	-6.1497
447.7491	-316.8000	-6.1505
447.8498	-316.8000	-6.1524
447.9511	-316.8000	-6.1536
448.0509	-316.8000	-6.1501
448.1516	-316.8000	-6.1579
448.2511	-316.8000	-6.1495
448.3510	-316.8000	-6.1516
448.4513	-316.8000	-6.1494
448.5508	-316.8000	-6.1542
448.6508	-316.8000	-6.1499
448.7514	-316.8000	-6.1529
448.8510	-316.8000	-6.1553
448.9514	-316.8000	-6.1502
449.0519	-316.8000	-6.1528
449.1525	-316.8000	-6.1547
449.2518	-316.8000	-6.1569
449.3523	-316.8000	-6.1536
449.4524	-316.8000	-6.1506
449.5525	-316.8000	-6.1572
449.6521	-316.8000	-6.1555
449.7521	-316.8000	-6.1549
449.8521	-316.8000	-6.1557
449.9524	-316.8000	-6.1518
450.0537	-316.8000	-6.1563
450.1547	-316.8000	-6.1501
450.2544	-316.8000	-6.1491
450.3541	-316.8000	-6.1541
450.4539	-316.8000	-6.1499
450.5546	-316.8000	-6.1523
450.6545	-316.8000	-6.1540
450.7542	-316.8000	-6.1535
450.8544	-316.8000	-6.1541
450.9555	-316.8000	-6.1523
451.0553	-316.8000	-6.1546
451.1551	-316.8000	-6.1513
451.2548	-316.8000	-6.1505
451.3556	-316.8000	-6.1514
451.4553	-316.8000	-6.1523
451.5551	-316.8000	-6.1478
451.6548	-316.8000	-6.1514
451.7555	-316.8000	-6.1518
451.8552	-316.8000	-6.1523
451.9554	-316.8000	-6.1521
452.0553	-316.8000	-6.1539
452.1557	-316.8000	-6.1531
452.2550	-316.8000	-6.1529
452.3548	-316.8000	-6.1509
452.4555	-316.8000	-6.1509
452.5553	-316.8000	-6.1535
452.6552	-316.8000	-6.1540
452.7553	-316.8000	-6.1510
452.8557	-316.8000	-6.1543
452.9560	-316.8000	-6.1527
453.0569	-316.8000	-6.1489
453.1575	-316.8000	-6.1544
453.2574	-316.8000	-6.1476
453.3571	-316.8000	-6.1492
453.4571	-316.8000	-6.1504
453.5571	-316.8000	-6.1523
453.6577	-316.8000	-6.1473
453.7579	-316.8000	-6.1526
453.8597	-316.8000	-6.1511
453.9599	-316.8000	-6.1486
454.0601	-316.8000	-6.1530
454.1601	-316.8000	-6.1533
454.2601	-316.8000	-6.1524
454.3606	-316.8000	-6.1512
454.4601	-316.8000	-6.1540
454.5600	-316.8000	-6.1535
454.6602	-316.8000	-6.1532
454.7617	-316.8000	-6.1532
454.8608	-316.8000	-6.1523
454.9617	-316.8000	-6.1547
455.0613	-316.8000	-6.1537
455.1609	-316.8000	-6.1519
455.2625	-316.8000	-6.1517
455.3625	-316.8000	-6.1532
455.4626	-316.8000	-6.1484
455.5625	-316.8000	-6.1481
455.6626	-316.8000	-6.1484
455.7622	-316.8000	-6.1527
455.8625	-316.8000	-6.1497
455.9622	-316.8000	-6.1530
456.0626	-316.8000	-6.1514
456.1624	-316.8000	-6.1524
456.2623	-316.8000	-6.1507
456.3633	-316.8000	-6.1554
456.4635	-316.8000	-6.1514
456.5638	-316.8000	-6.1513
456.6636	-316.8000	-6.1537
456.7638	-316.8000	-6.1492
456.8639	-316.8000	-6.1522
456.9645	-316.8000	-6.1530
457.0643	-316.8000	-6.1517
457.1643	-316.8000	-6.1524
457.2639	-316.8000	-6.1541
457.3658	-316.8000	-6.1537
457.4659	-316.8000	-6.1501
457.5669	-316.8000	-6.1501
457.6673	-316.8000	-6.1510
457.7676	-316.8000	-6.1491
457.8674	-316.8000	-6.1498
457.9683	-316.8000	-6.1518
458.0685	-316.8000	-6.1516
458.1686	-316.8000	-6.1477
458.2686	-316.8000	-6.1515
458.3685	-316.8000	-6.1514
458.4690	-316.8000	-6.1468
458.5689	-316.8000	-6.1527
458.6689	-316.8000	-6.1511
458.7696	-316.8000	-6.1511
458.8694	-316.8000	-6.1483
458.9689	-316.8000	-6.1500
459.0690	-316.8000	-6.1548
459.1698	-316.8000	-6.1498
459.2698	-316.8000	-6.1504
459.3696	-316.8000	-6.1537
459.4695	-316.8000	-6.1470
459.5695	-316.8000	-6.1464
459.6698	-316.8000	-6.1523
459.7699	-316.8000	-6.1485
459.8702	-316.8000	-6.1528
459.9702	-316.8000	-6.1505
460.0702	-316.8000	-6.1512
460.1703	-316.8000	-6.1436
460.2717	-316.8000	-6.1467
460.3728	-316.8000	-6.1476
460.4721	-316.8000	-6.1430
460.5722	-316.8000	-6.1493
460.6725	-316.8000	-6.1462
460.7721	-316.8000	-6.1516
460.8730	-316.8000	-6.1485
460.9738	-316.8000	-6.1472
461.0733	-316.8000	-6.1496
461.1741	-316.8000	-6.1489
461.2756	-316.8000	-6.1446
461.3758	-316.8000	-6.1442
461.4758	-316.8000	-6.1471
461.5749	-316.8000	-6.1484
461.6750	-316.8000	-6.1454
461.7756	-316.8000	-6.1498
461.8758	-316.8000	-6.1502
461.9759	-316.8000	-6.1471
462.0760	-316.8000	-6.1473
462.1762	-316.8000	-6.1501
462.2770	-316.8000	-6.1462
462.3777	-316.8000	-6.1488
462.4774	-316.8000	-6.1495
462.5772	-316.8000	-6.1490
462.6769	-316.8000	-6.1440
462.7776	-316.8000	-6.1498
462.8775	-316.8000	-6.1479
462.9779	-316.8000	-6.1488
463.0784	-316.8000	-6.1445
463.1795	-316.8000	-6.1447
463.2805	-316.8000	-6.1453
463.3802	-316.8000	-6.1420
463.4805	-316.8000	-6.1442
463.5802	-316.8000	-6.1526
463.6800	-316.8000	-6.1423
463.7801	-316.8000	-6.1446
463.8818	-316.8000	-6.1438
463.9826	-316.8000	-6.1454
464.0823	-316.8000	-6.1445
464.1820	-316.8000	-6.1450
464.2832	-316.8000	-6.1474
464.3836	-316.8000	-6.1463
464.4836	-316.8000	-6.1468
464.5849	-316.8000	-6.1494
464.6852	-316.8000	-6.1446
464.7849	-316.8000	-6.1484
464.8850	-316.8000	-6.1475
464.9870	-316.8000	-6.1451
465.0863	-316.8000	-6.1447
465.1864	-316.8000	-6.1470
465.2871	-316.8000	-6.1482
465.3878	-316.8000	-6.1450
465.4879	-316.8000	-6.1477
465.5877	-316.8000	-6.1481
465.6884	-316.8000	-6.1424
465.7881	-316.8000	-6.1468
465.8887	-316.8000	-6.1486
465.9884	-316.8000	-6.1465
466.0893	-316.8000	-6.1457
466.1901	-316.8000	-6.1482
466.2902	-316.8000	-6.1478
466.3913	-316.8000	-6.1484
466.4912	-316.8000	-6.1494
466.5917	-316.8000	-6.1472
466.6918	-316.8000	-6.1470
466.7923	-316.8000	-6.1464
466.8926	-316.8000	-6.1485
466.9928	-316.8000	-6.1483
467.0922	-316.8000	-6.1526
467.1928	-316.8000	-6.1477
467.2927	-316.8000	-6.1479
467.3927	-316.8000	-6.1507
467.4920	-316.8000	-6.1478
467.5925	-316.8000	-6.1405
467.6924	-316.8000	-6.1455
467.7925	-316.8000	-6.1473
467.8925	-316.8000	-6.1458
467.9944	-316.8000	-6.1445
468.0944	-316.6660	-6.1473
468.2152	-316.2530	-6.1413
468.3165	-315.5690	-6.1454
468.4163	-314.8850	-6.1465
468.5168	-314.2360	-6.1440
468.6170	-313.5520	-6.1478
468.7176	-312.9020	-6.1498
468.8175	-312.2180	-6.1457
468.9178	-311.5690	-6.1503
469.0173	-310.8860	-6.1489
469.1189	-310.2360	-6.1460
469.2186	-309.5530	-6.1254
469.3189	-308.9030	-5.2177
469.4187	-308.2200	-3.8892
469.5198	-307.5360	-2.8616
469.6196	-306.8860	-2.0220
469.7191	-306.2030	-1.3228
469.8197	-305.5540	-0.7587
469.9199	-304.8700	-0.2844
470.0199	-304.2210	0.1068
470.1207	-303.5370	0.4224
470.2203	-302.8870	0.6712
470.3202	-302.2040	0.8736
470.4200	-301.5550	1.0296
470.5205	-300.8710	1.1623
470.6205	-300.2220	1.2690
470.7208	-299.5380	1.3459
470.8216	-298.8540	1.4000
470.9219	-298.2050	1.4514
471.0228	-297.5220	1.4803
471.1223	-296.8720	1.4980
471.2227	-296.1860	1.5050
471.3235	-295.5020	1.5106
471.4237	-294.8510	1.5281
471.5244	-294.1670	1.5186
471.6248	-293.5180	1.5124
471.7246	-292.8340	1.5010
471.8245	-292.1850	1.4907
471.9242	-291.5010	1.4780
472.0274	-290.8170	1.4728
472.1259	-290.1680	1.4529
472.2252	-289.5180	1.4438
472.3261	-288.8350	1.4323
472.4269	-288.1850	1.4208
472.5271	-287.4680	1.4033
472.6276	-286.8180	1.3897
472.7271	-286.1690	1.3782
472.8279	-285.4850	1.3632
472.9275	-284.8360	1.3574
473.0275	-284.1520	1.3424
473.1276	-283.5030	1.3268
473.2278	-282.8190	1.3174
473.3278	-282.1700	1.3112
473.4276	-281.4860	1.3005
473.5272	-280.8370	1.2940
473.6280	-280.1530	1.2810
473.7284	-279.4700	1.2745
473.8285	-278.8200	1.2610
473.9284	-278.1710	1.2608
474.0281	-277.4850	1.2528
474.1284	-276.8350	1.2379
474.2286	-276.1490	1.2407
474.3282	-275.5000	1.2315
474.4289	-274.8160	1.2139
474.5291	-274.1670	1.2326
474.6292	-273.4810	1.2204
474.7309	-272.7970	1.2043
474.8303	-272.1480	1.2059
474.9302	-271.4640	1.2153
475.0303	-270.8150	1.2057
475.1303	-270.1310	1.2032
475.2300	-269.4820	1.2022
475.3318	-268.7980	1.2079
475.4313	-268.1490	1.2078
475.5318	-267.4650	1.2203
475.6311	-266.8460	1.2242
475.7324	-266.7990	1.2255
475.8324	-266.7990	1.2309
475.9323	-266.7990	1.2391
476.0327	-266.7990	1.2425
476.1327	-266.7990	1.2571
476.2325	-266.7990	1.2613
476.3340	-266.7990	1.2790
476.4345	-266.8000	1.2784
476.5344	-266.8000	1.2907
476.6345	-266.8000	1.2904
476.7348	-266.8000	1.2949
476.8342	-266.8000	1.2994
476.9343	-266.8000	1.3002
477.0344	-266.6630	1.3069
477.1563	-266.2510	1.3156
477.2562	-265.5670	1.3111
477.3570	-264.9170	1.3018
477.4569	-264.2330	1.3107
477.5568	-263.5840	1.3100
477.6568	-262.9000	1.3053
477.7569	-262.2510	1.3107
477.8562	-261.5670	1.3054
477.9563	-260.9170	1.3011
478.0560	-260.2340	1.2939
478.1568	-259.5840	1.3078
478.2560	-258.9000	1.3234
478.3566	-258.2510	1.3167
478.4568	-257.5680	1.3211
478.5572	-256.8840	1.3353
478.6582	-256.2350	1.3349
478.7588	-255.5510	1.3512
478.8587	-254.9020	1.3636
478.9585	-254.2180	1.3622
479.0590	-253.5690	1.3707
479.1583	-252.8850	1.3833
479.2585	-252.2350	1.3857
479.3582	-251.5520	1.3903
479.4582	-250.9020	1.3889
479.5588	-250.2190	1.3809
479.6585	-249.5690	1.3836
479.7589	-248.8860	1.3817
479.8599	-248.2370	1.3847
479.9597	-247.5510	1.3798
480.0590	-246.9010	1.3812
480.1600	-246.2180	1.3883
480.2599	-245.5680	1.3851
480.3594	-244.8850	1.3857
480.4594	-244.2350	1.3795
480.5605	-243.5520	1.3846
480.6601	-242.8680	1.3901
480.7605	-242.2190	1.3886
480.8613	-241.5350	1.3902
480.9628	-240.8510	1.3907
481.0621	-240.2020	1.3867
481.1646	-239.5180	1.3909
481.2646	-238.8350	1.3960
481.3646	-238.1850	1.3904
481.4641	-237.5360	1.3944
481.5645	-236.8530	1.3879
481.6650	-236.2030	1.3794
481.7663	-235.5190	1.3873
481.8653	-234.8360	1.3851
481.9655	-234.1860	1.3887
482.0657	-233.5030	1.3724
482.1667	-232.8190	1.3892
482.2669	-232.1700	1.3860
482.3672	-231.4860	1.3802
482.4683	-230.8370	1.3785
482.5686	-230.1530	1.3841
482.6690	-229.5040	1.3929
482.7690	-228.8200	1.3845
482.8684	-228.1710	1.3781
482.9694	-227.4870	1.3697
483.0696	-226.8380	1.3767
483.1692	-226.1520	1.3768
483.2699	-225.5020	1.3720
483.3701	-224.8160	1.3819
483.4703	-224.1330	1.3743
483.5704	-223.4830	1.3790
483.6715	-222.8000	1.3714
483.7728	-222.1500	1.3859
483.8728	-221.4660	1.3768
483.9722	-220.8170	1.3780
484.0727	-220.1340	1.3723
484.1728	-219.4500	1.3831
484.2728	-218.8010	1.3758
484.3724	-218.1510	1.3727
484.4728	-217.4650	1.3726
484.5727	-216.8460	1.3817
484.6729	-216.7990	1.3779
484.7727	-216.7990	1.3754
484.8733	-216.7990	1.3735
484.9742	-216.7990	1.3760
485.0749	-216.7990	1.3684
485.1744	-216.7990	1.3738
485.2760	-216.7990	1.3708
485.3758	-216.8000	1.3793
485.4755	-216.8000	1.3772
485.5758	-216.8000	1.3773
485.6758	-216.8000	1.3724
